Folder: electrochemistry-data/literature/svgdigitizer/abe_2019_electro-oxidation_315

Note: literature/svgdigitizer/abe_2019_electro-oxidation_315/abe_2019_electro-oxidation_315_f2a1_black.yaml
curation:
  process:
  - role: curator
    name: Nadine Woelfel
    orcid: https://orcid.org/0009-0008-1149-1534
    date: 2023-01-07
source:
  citationKey: abe_2019_electro-oxidation_315
  url: https://doi.org/10.3390/surfaces2020023
  techniques:
  - CV
experimental:
  instrumentation:
  - manufacturer: Metrohm AG
    name: PGSTAT128N
    type: potentiostat
system:
  type: electrochemical
  electrolyte:
    type: aqueous
    components:
    - name: water
      type: solvent
      source:
        refinement: Millipore Milli Q
      purity:
        grade: ultrapure
    - name: HClO4
      type: acid
      concentration:
        value: 0.1
        unit: mol / l
    - name: N2
      type: gas
  electrodes:
    - name: REF
      function: reference electrode
      type: RHE
    - name: WE
      function: working electrode
      crystallographicOrientation: '111'
      material: Pt
      preparationProcedure:
        description:
          - Annealed in hydrogen/oxygen flame
          - subsequently cooled in air down to 473 K
          - protected with water
          - immediately transferred into the electrochemical cell.

Note: literature/svgdigitizer/abe_2019_electro-oxidation_315/abe_2019_electro-oxidation_315_f3b1_black.yaml
curation:
  process:
  - role: curator
    name: Nadine Woelfel
    orcid: https://orcid.org/0009-0008-1149-1534
    date: 2025-01-07
source:
  citation key: abe_2019_elctro-oxidation_315
  url: https://doi.org/10.3390/surfaces2020023
  techniques:
  - CV
experimental:
  instrumentation:
  - manufacturer: Metrohm AG
    name: PGSTAT128N
    type: potentiostat
system:
  type: electrochemical
  electrolyte:
    type: aqueous
    components:
    - name: water
      type: solvent
      source:
        refinement: Millipore-Super Q
      purity:
        grade: ultrapure
    - name: HClO4
      type: acid
      concentration:
        value: 0.1
        unit: mol / l
    - name: N2
      type: gas
  electrodes:
    - name: REF
      function: reference electrode
      type: RHE
    - name: WE
      function: working electrode
      material: Pt
      crystallographic orientation: '431'
      preparation procedure: crystallization of a molten ball
        description:
          - Annealed in hydrogen/oxygen flame for two hours and subsequently cooled in argon down to 473 degree kelvin and then protected with a ultrapure water and transferred immediately into the electrochemical cell.

Note: README.md
# Electrochemistry-data

This repository contains data used for the creation of entries on [echemdb.org](https://wwww.echemdb.org/cv).
The data consist of frictionless based [`unitpackages`](https://echemdb.github.io/unitpackage/),
which were creared from SVG, YAML and bibtex (BIB) using [`svgdigitizer`](https://echemdb.github.io/svgdigitizer/).
All input YAML files and output DataPackages are validated against the [echemdb-metadata schema](https://github.com/echemdb/metadata-schema).

## Accessing Data

### Direct Download (Release Section)

The data can be downloaded as a ZIP from the [release section](https://github.com/echemdb/electrochemistry-data/releases).

### Unitpackage API

A collection can be created from the the [echemdb module](https://echemdb.github.io/unitpackage/usage/echemdb_usage.html) of the [`unitpackages`](https://echemdb.github.io/unitpackage/) interface
(see [`unitpackages` installation instructions](https://echemdb.github.io/unitpackage/installaton.html)).

```python
from unitpackage.database.echemdb import Echemdb
db = Echemdb.from_remote()
```

### Electrochemistry Data API

Install the latest version of the module.

```sh
pip install git+https://github.com/echemdb/electrochemistry-data.git
```

In your preferred Python environment retrieve the URL with the data via

```py
from echemdb_ecdata.url import ECHEMDB_DATABASE_URL
ECHEMDB_DATABASE_URL
```

## Contributing

The preparation and of the files and the extraction of the data from a PDF source is
described [here](https://echemdb.github.io/svgdigitizer/workflow.html).

## Development

If you want to work on the data and repository itself, install [pixi](https://pixi.sh)
and clone the repository:

```sh
git clone https://github.com/echemdb/electrochemistry-data.git
cd electrochemistry-data
```

For possible commands run

```sh
pixi run
```

More pixi tasks can be inferred from the [pyproject.toml](pyproject.toml).

### Conversion

The repository converts source data into standardized frictionless datapackages:

```sh
# Convert all data (SVG digitizer + raw data)
pixi run -e dev convert

# Convert only SVG digitizer data (from literature/svgdigitizer/)
pixi run -e dev convert-svg

# Convert only raw data (from literature/source_data/)
pixi run -e dev convert-raw

# Clean generated data before converting
pixi run -e dev clean-data
```

A typical workflow:

```sh
# Clean previous builds and convert all data
pixi run -e dev clean-data && pixi run -e dev convert
```

Generated datapackages are written to `data/generated/svgdigitizer/` and `data/generated/source_data/`.

### Validation

All data (input YAML and output JSON) is validated against the [echemdb-metadata schema](https://github.com/echemdb/metadata-schema).

```sh
# Validate input YAML files before conversion
pixi run -e dev validate-input

# Validate generated JSON datapackages after conversion
pixi run -e dev validate-generated
```

Each validation command shows verbose output listing all validated files. You ca

File: abe_2019_electro-oxidation_315_f2b1_black.csv
E,j
0.0703915,32.4707
0.0928173,35.9573
0.106942,38.842
0.114839,43.297
0.119948,47.8741
0.125264,53.5359
0.129335,53.7747
0.13429,50.3971
0.13904,45.7542
0.145074,41.4119
0.156246,37.7899
0.178989,34.6434
0.196786,33.6692
0.21286,33.7205
0.234087,32.7443
0.246309,32.0143
0.259155,33.9356
0.268558,37.5461
0.274547,39.2903
0.280341,38.2626
0.284654,34.8252
0.289838,29.4589
0.296094,24.0317
0.307506,17.095
0.319543,12.448
0.343588,7.13135
0.365684,4.52765
0.404921,2.57721
0.440289,2.25603
0.487442,2.22957
0.549163,3.15914
0.586019,4.34373
0.617728,6.01329
0.644491,9.79485
0.664826,13.339
0.684515,17.3656
0.704854,20.307
0.730762,23.7877
0.748108,25.8872
0.762225,29.7361
0.773555,33.6468
0.784674,37.1961
0.792158,39.5422
0.801804,39.4162
0.821359,32.5956
0.8319,27.4673
0.842864,23.0619
0.85038,21.069
0.861967,19.3752
0.890687,19.4193
0.918551,19.3434
0.928622,19.7596
0.938683,21.3208
0.945109,21.9198
0.947751,12.5173
0.946507,6.91353
0.94185,-0.857798
0.927951,-5.18894
0.902037,-7.94651
0.875483,-10.9448
0.85943,-14.0092
0.844675,-18.4603
0.83143,-24.2382
0.819029,-28.3291
0.808758,-30.6736
0.793339,-32.2921
0.782615,-31.3821
0.760983,-33.4189
0.741488,-34.6735
0.71169,-33.9336
0.6926,-31.9945
0.673486,-26.8011
0.659079,-20.6462
0.640599,-14.2479
0.623427,-10.8636
0.56768,-8.12045
0.509787,-5.07478
0.481279,-4.75748
0.445698,-4.5567
0.39276,-4.82832
0.347131,-7.99667
0.326797,-11.7818
0.306898,-16.2301
0.290233,-23.3318
0.280851,-29.7747
0.269514,-32.902
0.241219,-32.4643
0.207378,-35.5187
0.187053,-40.4489
0.173174,-47.5522
0.166332,-49.6575
0.160106,-48.268
0.151289,-44.4062
0.144857,-44.1012
0.139089,-46.629
0.130347,-52.771
0.125227,-55.9018
0.11749,-53.1253
0.110812,-48.6018
0.0985584,-43.7739
0.0817746,-42.1223
0.0759956,-43.1888
0.073159,-43.6391
0.0693021,-36.3557

File: abe_2019_electro-oxidation_315_f2c1_black.csv
E,j
0.0704306,1.85606
0.0790154,6.46336
0.0846074,7.87858
0.0932077,10.4256
0.100512,13.3359
0.106519,16.8923
0.109935,21.0944
0.112711,24.5289
0.121065,31.1964
0.124492,33.8634
0.127935,34.5106
0.13182,33.6631
0.137676,28.6956
0.143102,23.6067
0.149823,18.0738
0.15762,12.8642
0.166918,8.66504
0.175128,5.75829
0.18484,3.70025
0.199725,1.56258
0.21525,0.273424
0.233786,-0.247474
0.250156,0.645042
0.258978,2.34377
0.269523,4.16407
0.279648,4.65116
0.291087,2.22994
0.3075,-2.61402
0.318729,-5.68165
0.334489,-9.67739
0.348085,-12.3001
0.361028,-14.115
0.386465,-15.4019
0.404999,-15.6804
0.441199,-15.5105
0.473951,-15.1798
0.507565,-14.8489
0.570269,-14.4709
0.61013,-14.0174
0.647185,-12.8778
0.694571,-9.95824
0.720408,-7.20527
0.749684,-3.15878
0.760864,0.237204
0.766866,4.43994
0.772869,8.48108
0.778013,12.1988
0.783171,13.9775
0.7892,14.6253
0.797828,13.4961
0.806904,10.1452
0.815331,6.99612
0.822673,4.97792
0.83195,3.56614
0.846171,3.6502
0.862539,4.8659
0.882347,7.05191
0.898708,9.27754
0.912492,10.1291
0.931449,11.0222
0.94588,11.8738
0.947652,5.49142
0.94707,-3.11343
0.943697,-12.9712
0.937483,-17.6588
0.92738,-20.9737
0.912746,-23.5221
0.894658,-25.2634
0.874416,-27.1263
0.845353,-30.8092
0.820605,-35.1374
0.806193,-38.5341
0.792428,-42.0115
0.779732,-44.4383
0.767894,-46.2589
0.744398,-45.2543
0.715283,-41.9484
0.702768,-39.7698
0.688521,-36.4201
0.674912,-32.0199
0.654187,-27.0153
0.628742,-24.6377
0.581535,-22.5479
0.54467,-20.3345
0.505663,-19.8991
0.469027,-19.4631
0.432606,-18.9867
0.375505,-19.4038
0.349014,-21.1874
0.325341,-25.273
0.311145,-28.7908
0.298889,-32.3891
0.286202,-35.9066
0.275007,-37.2827
0.262286,-36.316
0.243524,-34.3409
0.225857,-34.7085
0.202171,-37.1378
0.186249,-40.2521
0.168418,-47.447
0.155744,-52.742
0.14072,-60.8249
0.134718,-64.9065
0.132797,-67.4116
0.127214,-70.0387
0.120957,-69.0302
0.115974,-65.4764
0.10882,-59.7012
0.101878,-53.6027
0.0932294,-49.6861
0.0845916,-47.2642
0.0772627,-46.9427
0.0692916,-47.1869

File: abe_2019_electro-oxidation_315_f3b1_black.csv
E,j
0.0782792,33.5623
0.0782792,33.5624
0.0921269,40.4644
0.0978889,44.2601
0.109815,53.877
0.115801,62.1881
0.121154,69.8665
0.125557,76.6169
0.131074,81.5521
0.137591,82.3512
0.144008,78.1284
0.151456,70.4024
0.160113,62.7604
0.167356,56.9758
0.174687,52.9635
0.1921,48.7361
0.207316,45.7756
0.219467,41.7614
0.23308,36.8603
0.24378,33.9439
0.26319,30.5175
0.277904,26.5444
0.291827,21.812
0.305165,17.4175
0.325031,14.0752
0.349855,10.4777
0.366433,7.64326
0.389475,4.55291
0.417444,3.61272
0.448172,3.64205
0.479826,4.09299
0.511797,4.88139
0.540745,5.46006
0.566352,5.49154
0.595273,5.5216
0.621782,5.51048
0.651481,6.04664
0.683319,7.17271
0.707914,8.04863
0.742345,9.84883
0.762591,11.1064
0.788638,13.9229
0.801875,16.5761
0.824314,22.5592
0.835647,26.3104
0.847747,30.3567
0.859314,32.7573
0.875688,34.9027
0.883192,37.3894
0.894528,44.2213
0.902198,50.0419
0.909471,56.9598
0.917917,60.2058
0.927619,58.4293
0.936161,54.5431
0.945047,51.5009
0.95359,47.6148
0.95372,41.158
0.954119,24.9525
0.948425,7.39911
0.9468,-1.04047
0.940389,-8.80285
0.925627,-14.8736
0.909778,-18.5807
0.881711,-25.6587
0.867223,-29.2398
0.851464,-34.1707
0.831514,-38.5513
0.800926,-38.7917
0.77782,-33.971
0.754101,-26.3226
0.725938,-20.1916
0.696129,-16.8874
0.666177,-13.4144
0.640094,-10.9135
0.602697,-8.74559
0.56195,-7.29365
0.517731,-6.00907
0.488394,-5.32151
0.453196,-4.37832
0.402002,-4.01924
0.366332,-6.49418
0.344201,-9.31238
0.29927,-13.2604
0.274672,-17.217
0.254084,-22.3148
0.240548,-27.9641
0.219419,-40.911
0.209201,-46.4773
0.193619,-53.8982
0.18484,-57.777
0.179851,-58.1547
0.169599,-55.323
0.16249,-55.9108
0.155492,-60.339
0.142317,-70.8416
0.133056,-81.3881
0.128035,-85.4373
0.122687,-86.9543
0.113712,-79.6497
0.109179,-70.8699
0.103372,-60.4437
0.097156,-52.1697
0.0904067,-45.5413
0.0811629,-43.6383
0.0751125,-43.1994

File: abe_2019_electro-oxidation_315_f4b1_black.csv
E,j
0.0717874,28.0323
0.0797782,31.4008
0.103736,28.3071
0.129685,21.5622
0.166617,14.2536
0.188578,11.4411
0.202556,12.0002
0.223525,15.3663
0.2435,22.1025
0.263484,36.7022
0.273478,45.1254
0.281735,51.1773
0.294458,58.0398
0.302448,60.5659
0.314539,60.0838
0.325377,54.6952
0.337472,46.3615
0.349139,38.9406
0.364205,32.7087
0.376804,28.6927
0.398583,24.4839
0.424646,19.3655
0.45115,12.5152
0.476106,9.14049
0.502063,9.13562
0.53637,10.5373
0.573949,11.3688
0.605896,11.2887
0.663731,9.26128
0.703817,8.27868
0.767341,10.6968
0.797591,18.0669
0.815364,26.668
0.832915,35.5773
0.846535,38.7654
0.871936,36.4828
0.907436,39.1089
0.927129,41.2778
0.941121,42.3985
0.947819,43.0564
0.947335,7.92874
0.93933,-7.79652
0.91536,-15.6359
0.893655,-19.8366
0.865431,-25.1944
0.833032,-31.5189
0.799072,-33.4003
0.762218,-30.8425
0.738538,-27.3432
0.718049,-22.9279
0.694717,-18.7032
0.66922,-15.6561
0.646799,-15.0433
0.62184,-15.6745
0.588892,-16.4367
0.547197,-16.226
0.513018,-14.7374
0.481986,-14.1622
0.448037,-18.0875
0.430144,-22.5852
0.412348,-27.867
0.389115,-34.318
0.363872,-39.9066
0.348253,-44.7558
0.336096,-53.4594
0.322273,-63.8477
0.312369,-66.7791
0.303301,-66.0908
0.288334,-59.348
0.27237,-50.0774
0.255757,-39.8394
0.238448,-30.4127
0.211695,-22.7198
0.188,-20.8509
0.165756,-23.1168
0.143496,-27.5358
0.112647,-35.7249
0.0952936,-42.0014
0.0847632,-47.1637
0.0789628,-50.8564
0.0716952,-52.2865
0.0716952,-52.2865