Folder: electrochemistry-data/literature/rawdata/engstfeld_2018_polycrystalline_17743 (part 4)

File: 1708030001Cu100_UHV_C01_cycle35.csv
E,<I>,I (raw),j,j
V vs. RHE,mA,\g(m)A,\g(m)A/cm\+(-2),mA/cm\+(-2)
-0.195413,-0.00238352,-2.38352,-15.6756,-0.0156756
-0.198673,-0.00120959,-1.20959,-7.95505,-0.00795505
-0.1944,0.00024275,0.24275,1.59648,0.00159648
-0.189194,0.000434993,0.434993,2.8608,0.0028608
-0.1842346,0.000747929,0.747929,4.91886,0.00491886
-0.179249,0.00101742,1.01742,6.69125,0.00669125
-0.17426,0.00134328,1.34328,8.83425,0.00883425
-0.169272,0.00174391,1.74391,11.4691,0.0114691
-0.164338,0.00204848,2.04848,13.4721,0.0134721
-0.159312,0.0024159,2.4159,15.8885,0.0158885
-0.154311,0.0026601,2.6601,17.4945,0.0174945
-0.149293,0.00290657,2.90657,19.1155,0.0191155
-0.144359,0.00304146,3.04146,20.0026,0.0200026
-0.1393863,0.00308089,3.08089,20.2619,0.0202619
-0.134339,0.00309227,3.09227,20.3368,0.0203368
-0.129367,0.00302963,3.02963,19.9248,0.0199248
-0.124345,0.0029411,2.9411,19.3426,0.0193426
-0.119368,0.00279654,2.79654,18.3919,0.0183919
-0.114327,0.0026134,2.6134,17.1874,0.0171874
-0.1092931,0.00243542,2.43542,16.0169,0.0160169
-0.1043519,0.0022615,2.2615,14.8731,0.0148731
-0.0992921,0.00203664,2.03664,13.3943,0.0133943
-0.0942869,0.00185113,1.85113,12.1743,0.0121743
-0.0893343,0.00167255,1.67255,10.9998,0.0109998
-0.0843022,0.00151878,1.51878,9.98852,0.00998852
-0.07933,0.00138817,1.38817,9.12953,0.00912953
-0.0743614,0.00126475,1.26475,8.31782,0.00831782
-0.0693654,0.00116273,1.16273,7.64685,0.00764685
-0.0643487,0.0010706,1.0706,7.04094,0.00704094
-0.0593699,0.000960592,0.960592,6.31748,0.00631748
-0.0543376,0.000907022,0.907022,5.96517,0.00596517
-0.0493741,0.000852974,0.852974,5.60971,0.00560971
-0.0443554,0.000797335,0.797335,5.2438,0.0052438
-0.0393791,0.000746996,0.746996,4.91273,0.00491273
-0.034403,0.000701174,0.701174,4.61138,0.00461138
-0.0293775,0.000656779,0.656779,4.31941,0.00431941
-0.0244356,0.000638931,0.638931,4.20203,0.00420203
-0.0193652,0.000587164,0.587164,3.86158,0.00386158
-0.0143637,0.000510734,0.510734,3.35892,0.00335892
-0.00938216,0.000472598,0.472598,3.10811,0.00310811
-0.00441059,0.000464669,0.464669,3.05596,0.00305596
0.000578592,0.000453981,0.453981,2.98568,0.00298568
0.00559536,0.000456951,0.456951,3.00521,0.00300521
0.0105669,0.000424995,0.424995,2.79504,0.00279504
0.0155918,0.000395531,0.395531,2.60127,0.00260127
0.0206153,0.000410409,0.410409,2.69912,0.00269912
0.0255542,0.000390943,0.390943,2.5711,0.0025711
0.0305684,0.000406325,0.406325,2.67226,0.00267226
0.0355576,0.000399138,0.399138,2.62499,0.00262499
0.0405425,0.000453636,0.453636,2.98341,0.00298341
0.0455444,0.000457455,0.457455,3.00852,0.00300852
0.0506155,0.000445256,0.445256,2.92829,0.00292829
0.0555578,0.000408022,0.408022,2.68342,0.00268342
0.0605788,0.000390492,0.390492,2.56813,0.00256813
0.065573,0.000358275,0.358275,2.35625,0.00235625
0.0705557,0.000338991,0.338991,2.22942,0.00222942
0.0755158,0.000335702,0.335702,2.2078,0.0022078
0.0805332,0.000358191,0.358191,2.3557,0.0023557
0.0855674,0.000334933,0.334933,2.20274,0.00220274
0.0905572,0.000330929,0.330929,2.1764,0.0021764
0.0955307,0.000316024,0.316024,2.07838,0.00207838
0.100536,0.00032398,0.32398,2.13071,0.00213071
0.105477,0.000316687,0.316687,2.08274,0.00208274
0.110508,0.000299688,0.299688,1.97094,0.00197094
0.1154944,0.000309447,0.309447,2.03513,0.00203513
0.120522,0.000319498,0.319498,2.10123,0.00210123
0.125477,0.000292395,0.292395,1.92298,0.00192298
0.130454,0.000333315,0.333315,2.1921,0.0021921
0.135508,0.00029746,0.29746,1.95629,0.00195629
0.14045,0.000294278,0.294278,1.93536,0.00193536
0.145495,0.000269694,0.269694,1.77368,0.00177368
0.15043,0.000285022,0.285022,1.87449,0.00187449
0.155484,0.000296002,0.296002,1.9467,0.0019467
0.160474,0.000279082,0.279082,1.83542,0.00183542
0.165501,0.000258264,0.258264,1.69851,0.00169851
0.170448,0.000269694,0.269694,1.77368,0.00177368
0.175487,0.00025349,0.25349,1.66712,0.00166712
0.180449,0.00026012,0.26012,1.71072,0.00171072
0.185477,0.000253013,0.253013,1.66398,0.00166398
0.19045,0.000241831,0.241831,1.59044,0.00159044
0.195441,0.000262878,0.262878,1.72886,0.00172886
0.200427,0.000259165,0.259165,1.70444,0.00170444
0.205458,0.000215461,0.215461,1.41701,0.00141701
0.210418,0.000237233,0.237233,1.5602,0.0015602
0.215435,0.000244155,0.244155,1.60572,0.00160572
0.220426,0.000232089,0.232089,1.52637,0.00152637
0.225435,0.000279215,0.279215,1.8363,0.0018363
0.230389,0.000246568,0.246568,1.62159,0.00162159
0.235407,0.000218749,0.218749,1.43864,0.00143864
0.240383,0.000244367,0.244367,1.60712,0.00160712
0.245391,0.000263939,0.263939,1.73584,0.00173584
0.247595,0.00020891,0.20891,1.37393,0.00137393
0.24816,-0.000540146,-0.540146,-3.55235,-0.00355235
0.242819,-0.000674868,-0.674868,-4.43837,-0.00443837
0.237814,-0.000664976,-0.664976,-4.37331,-0.00437331
0.2328182,-0.000689401,-0.689401,-4.53395,-0.00453395
0.227859,-0.000731674,-0.731674,-4.81196,-0.00481196
0.222855,-0.000726608,-0.726608,-4.77865,-0.00477865
0.217927,-0.000729366,-0.729366,-4.79679,-0.00479679
0.212873,-0.000738065,-0.738065,-4.854,-0.004854
0.207929,-0.000730852,-0.730852,-4.80656,-0.00480656
0.202904,-0.000768165,-0.768165,-5.05195,-0.00505195
0.1978844,-0.000794049,-0.794049,-5.22218,-0.00522218
0.192912,-0.000799353,-0.799353,-5.25706,-0.00525706
0.187916,-0.000786703,-0.786703,-5.17387,-0.00517387
0.182928,-0.0007727,-0.7727,-5.08178,-0.00508178
0.177953,-0.000821237,-0.821237,-5.40099,-0.00540099
0.172906,-0.000841732,-0.841732,-5.53577,-0.00553577
0.167934,-0.000832953,-0.832953,-5.47804,-0.00547804
0.162943,-0.000853003,-0.853003,-5.6099,-0.0056099
0.157937,-0.000877958,-0.877958,-5.77402,-0.00577402
0.152915,-0.000903311,-0.903311,-5.94076,-0.00594076
0.147912,-0.000895912,-0.895912,-5.8921,-0.0058921
0.142936,-0.000916067,-0.916067,-6.02465,-0.00602465
0.1379907,-0.000909278,-0.909278,-5.98,-0.00598
0.132982,-0.0008848,-0.8848,-5.81902,-0.00581902
0.12795,-0.000893419,-0.893419,-5.8757,-0.0058757
0.122997,-0.000952399,-0.952399,-6.2636,-0.0062636
0.117979,-0.000950145,-0.950145,-6.24877,-0.00624877
0.112988,-0.000950198,-0.950198,-6.24912,-0.00624912
0.107957,-0.000954733,-0.954733,-6.27895,-0.00627895
0.103025,-0.000977991,-0.977991,-6.43191,-0.00643191
0.09801,-0.000952293,-0.952293,-6.2629,-0.0062629
0.0930166,-0.000958101,-0.958101,-6.3011,-0.0063011
0.0880093,-0.0010179,-1.0179,-6.6944,-0.0066944
0.0830087,-0.00102003,-1.02003,-6.70835,-0.00670835
0.0779752,-0.00102318,-1.02318,-6.72911,-0.00672911
0.0730331,-0.00102676,-1.02676,-6.75265,-0.00675265
0.068035,-0.00103851,-1.03851,-6.82992,-0.00682992
0.0630452,-0.00106026,-1.06026,-6.97293,-0.00697293
0.0580301,-0.00108288,-1.08288,-7.12171,-0.00712171
0.0530573,-0.00107505,-1.07505,-7.07022,-0.00707022
0.0480789,-0.00106405,-1.06405,-6.99788,-0.00699788
0.0430828,-0.00109871,-1.09871,-7.22583,-0.00722583
0.0380666,-0.00112215,-1.12215,-7.38001,-0.00738001
0.0330473,-0.00114722,-1.14722,-7.54483,-0.00754483
0.0281023,-0.00114072,-1.14072,-7.5021,-0.0075021
0.023035,-0.00114364,-1.14364,-7.52129,-0.00752129
0.0180851,-0.00118864,-1.18864,-7.81727,-0.00781727
0.0130808,-0.00121789,-1.21789,-8.00964,-0.00800964
0.00812518,-0.00120023,-1.20023,-7.89348,-0.00789348
0.00307912,-0.00124545,-1.24545,-8.19086,-0.00819086
-0.00189541,-0.00124749,-1.24749,-8.20429,-0.00820429
-0.00692683,-0.00124685,-1.24685,-8.2001,-0.0082001
-0.0118689,-0.00122853,-1.22853,-8.07958,-0.00807958
-0.0169277,-0.00126311,-1.26311,-8.30702,-0.00830702
-0.0218884,-0.00131599,-1.31599,-8.65479,-0.00865479
-0.0268577,-0.0013554,-1.3554,-8.91397,-0.00891397
-0.0318642,-0.00136296,-1.36296,-8.96368,-0.00896368
-0.0368738,-0.00139112,-1.39112,-9.14891,-0.00914891
-0.0418783,-0.00145426,-1.45426,-9.56418,-0.00956418
-0.0468577,-0.00145668,-1.45668,-9.58005,-0.00958005
-0.0518435,-0.00151821,-1.51821,-9.98476,-0.00998476
-0.0568844,-0.0015696,-1.5696,-10.3227,-0.0103227
-0.0618662,-0.00159081,-1.59081,-10.4622,-0.0104622
-0.0668908,-0.00166722,-1.66722,-10.9647,-0.0109647
-0.0718458,-0.00177306,-1.77306,-11.6608,-0.0116608
-0.0768851,-0.00179881,-1.79881,-11.8302,-0.0118302
-0.0818074,-0.00190852,-1.90852,-12.5517,-0.0125517
-0.0868363,-0.00204632,-2.04632,-13.4579,-0.0134579
-0.0917472,-0.0021559,-2.1559,-14.1786,-0.0141786
-0.0967586,-0.00228185,-2.28185,-15.0069,-0.0150069
-0.101801,-0.00241678,-2.41678,-15.8943,-0.0158943
-0.1068,-0.00259409,-2.59409,-17.0604,-0.0170604
-0.111745,-0.00282036,-2.82036,-18.5485,-0.0185485
-0.116731,-0.00303804,-3.03804,-19.9801,-0.0199801
-0.121779,-0.00327796,-3.27796,-21.558,-0.021558
-0.126766,-0.0035469,-3.5469,-23.3267,-0.0233267
-0.1317682,-0.00380513,-3.80513,-25.025,-0.025025
-0.136709,-0.00405924,-4.05924,-26.6962,-0.0266962
-0.141721,-0.0043957,-4.3957,-28.909,-0.028909
-0.146704,-0.00465061,-4.65061,-30.5854,-0.0305854
-0.1516825,-0.0048254,-4.8254,-31.735,-0.031735
-0.156711,-0.00493498,-4.93498,-32.4557,-0.0324557
-0.16177,-0.0048481,-4.8481,-31.8843,-0.0318843
-0.1668389,-0.00454872,-4.54872,-29.9153,-0.0299153
-0.171817,-0.00411111,-4.11111,-27.0374,-0.0270374
-0.1768433,-0.00359682,-3.59682,-23.6551,-0.0236551
-0.181823,-0.00318398,-3.18398,-20.9399,-0.0209399
-0.1867899,-0.00277859,-2.77859,-18.2738,-0.0182738
-0.1917899,-0.00251729,-2.51729,-16.5553,-0.0165553
-0.195371,-0.00236156,-2.36156,-15.5312,-0.0155312

File: 1708030001Cu100_UHV_C01_cycle36.csv
E,<I>,I (raw),j,j
V vs. RHE,mA,\g(m)A,\g(m)A/cm\+(-2),mA/cm\+(-2)
-0.195493,-0.00235679,-2.35679,-15.4998,-0.0154998
-0.198693,-0.00119681,-1.19681,-7.87098,-0.00787098
-0.194413,0.000278896,0.278896,1.8342,0.0018342
-0.189185,0.000448306,0.448306,2.94835,0.00294835
-0.184244,0.000767315,0.767315,5.04636,0.00504636
-0.179231,0.0010776,1.0776,7.08699,0.00708699
-0.174249,0.00137804,1.37804,9.06291,0.00906291
-0.169296,0.00171885,1.71885,11.3043,0.0113043
-0.164289,0.00208075,2.08075,13.6844,0.0136844
-0.159313,0.00241134,2.41134,15.8585,0.0158585
-0.1542953,0.00268145,2.68145,17.6349,0.0176349
-0.1493233,0.00292633,2.92633,19.2455,0.0192455
-0.144273,0.00306336,3.06336,20.1467,0.0201467
-0.139343,0.00310943,3.10943,20.4496,0.0204496
-0.134336,0.00311903,3.11903,20.5127,0.0205127
-0.1292838,0.00303795,3.03795,19.9796,0.0199796
-0.124299,0.0029411,2.9411,19.3426,0.0193426
-0.119317,0.00280336,2.80336,18.4367,0.0184367
-0.114295,0.00263827,2.63827,17.351,0.017351
-0.109278,0.00243765,2.43765,16.0316,0.0160316
-0.1043487,0.00221634,2.21634,14.5761,0.0145761
-0.0993228,0.00202577,2.02577,13.3228,0.0133228
-0.094305,0.00184845,1.84845,12.1566,0.0121566
-0.0893447,0.00168445,1.68445,11.0781,0.0110781
-0.0843421,0.00151184,1.51184,9.94282,0.00994282
-0.079344,0.00136107,1.36107,8.95128,0.00895128
-0.07435441,0.00124624,1.24624,8.19608,0.00819608
-0.0693517,0.00113676,1.13676,7.4761,0.0074761
-0.0643508,0.00104262,1.04262,6.85694,0.00685694
-0.0593544,0.000960327,0.960327,6.31574,0.00631574
-0.0543616,0.000911318,0.911318,5.99342,0.00599342
-0.0493264,0.000837964,0.837964,5.511,0.005511
-0.0443756,0.00079052,0.79052,5.19897,0.00519897
-0.039389,0.000723078,0.723078,4.75543,0.00475543
-0.0343985,0.000690566,0.690566,4.54161,0.00454161
-0.0294034,0.000660598,0.660598,4.34452,0.00434452
-0.0243556,0.000598144,0.598144,3.93378,0.00393378
-0.0193571,0.000553749,0.553749,3.64182,0.00364182
-0.0143798,0.000507843,0.507843,3.33991,0.00333991
-0.00934396,0.000483631,0.483631,3.18067,0.00318067
-0.00441017,0.000468912,0.468912,3.08387,0.00308387
0.000615305,0.000456819,0.456819,3.00434,0.00300434
0.00555037,0.000434648,0.434648,2.85853,0.00285853
0.0106187,0.000411178,0.411178,2.70417,0.00270417
0.0155881,0.000390758,0.390758,2.56988,0.00256988
0.02057096,0.000392004,0.392004,2.57807,0.00257807
0.0255767,0.000415182,0.415182,2.73051,0.00273051
0.0305869,0.000401445,0.401445,2.64016,0.00264016
0.0355822,0.000423854,0.423854,2.78754,0.00278754
0.0405916,0.000439607,0.439607,2.89114,0.00289114
0.0455203,0.000480581,0.480581,3.16061,0.00316061
0.0505782,0.0004626,0.4626,3.04236,0.00304236
0.055599,0.000415103,0.415103,2.72999,0.00272999
0.0605863,0.000390121,0.390121,2.56569,0.00256569
0.0655744,0.000387243,0.387243,2.54676,0.00254676
0.0705529,0.00036201,0.36201,2.38081,0.00238081
0.075579,0.000368375,0.368375,2.42267,0.00242267
0.0805472,0.000347769,0.347769,2.28715,0.00228715
0.0855317,0.000324352,0.324352,2.13315,0.00213315
0.0905638,0.000325704,0.325704,2.14204,0.00214204
0.0955551,0.000329549,0.329549,2.16733,0.00216733
0.10056,0.000362222,0.362222,2.38221,0.00238221
0.105519,0.000319366,0.319366,2.10036,0.00210036
0.110518,0.000311489,0.311489,2.04856,0.00204856
0.115511,0.00031552,0.31552,2.07507,0.00207507
0.120508,0.000286057,0.286057,1.8813,0.0018813
0.125488,0.000325333,0.325333,2.1396,0.0021396
0.13049,0.000312709,0.312709,2.05658,0.00205658
0.135525,0.000286985,0.286985,1.8874,0.0018874
0.140519,0.000270198,0.270198,1.777,0.001777
0.145449,0.000289584,0.289584,1.90449,0.00190449
0.1504267,0.000277199,0.277199,1.82304,0.00182304
0.1554857,0.000266379,0.266379,1.75188,0.00175188
0.160528,0.000292925,0.292925,1.92647,0.00192647
0.165473,0.000268527,0.268527,1.76601,0.00176601
0.170466,0.000299555,0.299555,1.97007,0.00197007
0.175444,0.000257495,0.257495,1.69345,0.00169345
0.180448,0.000251316,0.251316,1.65281,0.00165281
0.185436,0.000245959,0.245959,1.61758,0.00161758
0.190462,0.000239704,0.239704,1.57645,0.00157645
0.195454,0.000234051,0.234051,1.53927,0.00153927
0.198995,-2.23705e-05,-0.0223705,-0.147123,-0.000147123
0.196173,-0.000709874,-0.709874,-4.66859,-0.00466859
0.190797,-0.000693671,-0.693671,-4.56203,-0.00456203
0.185831,-0.000713932,-0.713932,-4.69528,-0.00469528
0.180867,-0.000729181,-0.729181,-4.79557,-0.00479557
0.175908,-0.000748143,-0.748143,-4.92027,-0.00492027
0.170885,-0.000791635,-0.791635,-5.20631,-0.00520631
0.165921,-0.000791529,-0.791529,-5.20561,-0.00520561
0.16088,-0.000814283,-0.814283,-5.35526,-0.00535526
0.1559269,-0.000837038,-0.837038,-5.5049,-0.0055049
0.150937,-0.000827649,-0.827649,-5.44316,-0.00544316
0.145906,-0.000806646,-0.806646,-5.30503,-0.00530503
0.1409182,-0.000856477,-0.856477,-5.63275,-0.00563275
0.135977,-0.000875014,-0.875014,-5.75466,-0.00575466
0.13096,-0.00090766,-0.90766,-5.96936,-0.00596936
0.125947,-0.00088366,-0.88366,-5.81152,-0.00581152
0.120943,-0.000909914,-0.909914,-5.98419,-0.00598419
0.115904,-0.000926743,-0.926743,-6.09487,-0.00609487
0.110947,-0.000924368,-0.924368,-6.07924,-0.00607924
0.105969,-0.000952479,-0.952479,-6.26412,-0.00626412
0.100986,-0.0009511,-0.9511,-6.25505,-0.00625505
0.0960086,-0.000931104,-0.931104,-6.12355,-0.00612355
0.0910126,-0.000956855,-0.956855,-6.2929,-0.0062929
0.0859489,-0.000994938,-0.994938,-6.54336,-0.00654336
0.0810302,-0.00100303,-1.00303,-6.59655,-0.00659655
0.0760224,-0.000996741,-0.996741,-6.55522,-0.00655522
0.0710296,-0.00100515,-1.00515,-6.61051,-0.00661051
0.06602066,-0.00103254,-1.03254,-6.79067,-0.00679067
0.0609761,-0.00104591,-1.04591,-6.87858,-0.00687858
0.0560245,-0.00107097,-1.07097,-7.0434,-0.0070434
0.0510005,-0.0010667,-1.0667,-7.01532,-0.00701532
0.0460595,-0.00106296,-1.06296,-6.99072,-0.00699072
0.0410332,-0.00108397,-1.08397,-7.12886,-0.00712886
0.0360652,-0.00111303,-1.11303,-7.32002,-0.00732002
0.031117,-0.00111327,-1.11327,-7.32159,-0.00732159
0.0260892,-0.00112388,-1.12388,-7.39135,-0.00739135
0.0210767,-0.00113899,-1.13899,-7.49077,-0.00749077
0.0160584,-0.00119018,-1.19018,-7.82738,-0.00782738
0.0110998,-0.00116529,-1.16529,-7.66372,-0.00766372
0.00606563,-0.00117278,-1.17278,-7.71297,-0.00771297
0.001078571,-0.00122423,-1.22423,-8.05133,-0.00805133
-0.003915491,-0.00121969,-1.21969,-8.0215,-0.0080215
-0.00891507,-0.00124714,-1.24714,-8.20202,-0.00820202
-0.0139238,-0.00124849,-1.24849,-8.21091,-0.00821091
-0.0189079,-0.00126419,-1.26419,-8.31417,-0.00831417
-0.0239055,-0.00128297,-1.28297,-8.43765,-0.00843765
-0.0289138,-0.00129392,-1.29392,-8.50968,-0.00850968
-0.0338892,-0.0013555,-1.3555,-8.91467,-0.00891467
-0.0389032,-0.00141828,-1.41828,-9.3275,-0.0093275
-0.0439106,-0.00146763,-1.46763,-9.65209,-0.00965209
-0.0488814,-0.00147813,-1.47813,-9.72115,-0.00972115
-0.0538593,-0.00152168,-1.52168,-10.0075,-0.0100075
-0.0588837,-0.00155493,-1.55493,-10.2263,-0.0102263
-0.0638856,-0.00162152,-1.62152,-10.6642,-0.0106642
-0.068868,-0.00167279,-1.67279,-11.0013,-0.0110013
-0.0738744,-0.00176805,-1.76805,-11.6278,-0.0116278
-0.0788986,-0.00187994,-1.87994,-12.3637,-0.0123637
-0.0838856,-0.00195284,-1.95284,-12.8431,-0.0128431
-0.0888515,-0.00206011,-2.06011,-13.5486,-0.0135486
-0.09382835,-0.00217951,-2.17951,-14.3338,-0.0143338
-0.0988625,-0.00233001,-2.33001,-15.3236,-0.0153236
-0.103765,-0.00247754,-2.47754,-16.2939,-0.0162939
-0.108823,-0.0026497,-2.6497,-17.4262,-0.0174262
-0.113784,-0.00285484,-2.85484,-18.7753,-0.0187753
-0.118781,-0.00312001,-3.12001,-20.5192,-0.0205192
-0.123797,-0.003341,-3.341,-21.9726,-0.0219726
-0.128773,-0.00361286,-3.61286,-23.7605,-0.0237605
-0.133739,-0.00390747,-3.90747,-25.698,-0.025698
-0.1387573,-0.00417222,-4.17222,-27.4392,-0.0274392
-0.143693,-0.00442365,-4.42365,-29.0928,-0.0290928
-0.148722,-0.00470529,-4.70529,-30.9451,-0.0309451
-0.153743,-0.00488107,-4.88107,-32.1011,-0.0321011
-0.1587223,-0.00490114,-4.90114,-32.2331,-0.0322331
-0.163763,-0.00472662,-4.72662,-31.0853,-0.0310853
-0.168817,-0.00436518,-4.36518,-28.7082,-0.0287082
-0.173769,-0.0038771,-3.8771,-25.4983,-0.0254983
-0.178799,-0.00342287,-3.42287,-22.511,-0.022511
-0.183833,-0.00300563,-3.00563,-19.767,-0.019767
-0.1888157,-0.00265278,-2.65278,-17.4464,-0.0174464
-0.193746,-0.00238639,-2.38639,-15.6944,-0.0156944
-0.1952948,-0.00232719,-2.32719,-15.3051,-0.0153051