Folder: electrochemistry-data/literature/rawdata/engstfeld_2018_polycrystalline_17743 (part 3)

File: 1708030001Cu100_UHV_C01_cycle33.csv
E,<I>,I (raw),j,j
V vs. RHE,mA,\g(m)A,\g(m)A/cm\+(-2),mA/cm\+(-2)
-0.195451,-0.00241694,-2.41694,-15.8954,-0.0158954
-0.198334,-0.000790442,-0.790442,-5.19846,-0.00519846
-0.192246,0.000201723,0.201723,1.32666,0.00132666
-0.186211,0.00050421,0.50421,3.31601,0.00331601
-0.180241,0.000895937,0.895937,5.89226,0.00589226
-0.174303,0.00125557,1.25557,8.25747,0.00825747
-0.168293,0.00167316,1.67316,11.0038,0.0110038
-0.1623482,0.00211867,2.11867,13.9337,0.0139337
-0.156342,0.00249353,2.49353,16.399,0.016399
-0.150313,0.00274846,2.74846,18.0757,0.0180757
-0.14435,0.0029436,2.9436,19.359,0.019359
-0.1383159,0.0030313,3.0313,19.9358,0.0199358
-0.132347,0.00299099,2.99099,19.6707,0.0196707
-0.126308,0.00294301,2.94301,19.3552,0.0193552
-0.120368,0.00281672,2.81672,18.5246,0.0185246
-0.114274,0.002613,2.613,17.1848,0.0171848
-0.108281,0.00237,2.37,15.5866,0.0155866
-0.102341,0.00214862,2.14862,14.1307,0.0141307
-0.0963138,0.0019434,1.9434,12.781,0.012781
-0.0902924,0.00172492,1.72492,11.3442,0.0113442
-0.0843553,0.00149171,1.49171,9.81044,0.00981044
-0.0783402,0.00132447,1.32447,8.71059,0.00871059
-0.0723258,0.00121182,1.21182,7.96969,0.00796969
-0.0663847,0.00109088,1.09088,7.17437,0.00717437
-0.0603352,0.000969248,0.969248,6.3744,0.0063744
-0.0543917,0.000900763,0.900763,5.924,0.005924
-0.0483886,0.000846795,0.846795,5.56908,0.00556908
-0.0423566,0.000773839,0.773839,5.08927,0.00508927
-0.0363757,0.000724909,0.724909,4.76747,0.00476747
-0.0303705,0.00069351,0.69351,4.56097,0.00456097
-0.0243909,0.000624849,0.624849,4.10942,0.00410942
-0.0183541,0.000542382,0.542382,3.56706,0.00356706
-0.01242108,0.000494,0.494,3.24886,0.00324886
-0.00642388,0.000474375,0.474375,3.1198,0.0031198
-0.000388048,0.000446715,0.446715,2.93789,0.00293789
0.00558984,0.000412345,0.412345,2.71185,0.00271185
0.0116265,0.000433667,0.433667,2.85208,0.00285208
0.01761077,0.000406988,0.406988,2.67662,0.00267662
0.0235628,0.000394825,0.394825,2.59662,0.00259662
0.0295795,0.00038906,0.38906,2.55871,0.00255871
0.035541,0.000424279,0.424279,2.79033,0.00279033
0.0415344,0.000442763,0.442763,2.9119,0.0029119
0.0475713,0.00046199,0.46199,3.03835,0.00303835
0.0535594,0.000418577,0.418577,2.75283,0.00275283
0.059515,0.000391235,0.391235,2.57302,0.00257302
0.0655295,0.000354648,0.354648,2.3324,0.0023324
0.0715665,0.000351694,0.351694,2.31297,0.00231297
0.0775418,0.000351879,0.351879,2.31419,0.00231419
0.0835314,0.000326367,0.326367,2.1464,0.0021464
0.0895273,0.000342279,0.342279,2.25105,0.00225105
0.0955218,0.000301704,0.301704,1.9842,0.0019842
0.10155,0.000309633,0.309633,2.03635,0.00203635
0.107513,0.000330091,0.330091,2.17089,0.00217089
0.113491,0.000320957,0.320957,2.11082,0.00211082
0.119478,0.000346947,0.346947,2.28175,0.00228175
0.125468,0.000318756,0.318756,2.09635,0.00209635
0.131421,0.00028603,0.28603,1.88112,0.00188112
0.137488,0.000299184,0.299184,1.96763,0.00196763
0.143484,0.000301889,0.301889,1.98542,0.00198542
0.149439,0.000278737,0.278737,1.83316,0.00183316
0.155477,0.000274441,0.274441,1.8049,0.0018049
0.1614757,0.000257309,0.257309,1.69223,0.00169223
0.167509,0.000247152,0.247152,1.62543,0.00162543
0.173474,0.000256938,0.256938,1.68979,0.00168979
0.179478,0.00027529,0.27529,1.81048,0.00181048
0.185449,0.000245375,0.245375,1.61375,0.00161375
0.191385,0.000248849,0.248849,1.63659,0.00163659
0.197427,0.000262613,0.262613,1.72711,0.00172711
0.203477,0.000242723,0.242723,1.59631,0.00159631
0.209452,0.000240575,0.240575,1.58218,0.00158218
0.215434,0.000245428,0.245428,1.6141,0.0016141
0.221445,0.000233255,0.233255,1.53404,0.00153404
0.227403,0.000221109,0.221109,1.45416,0.00145416
0.2334086,0.000237446,0.237446,1.5616,0.0015616
0.239407,0.000239779,0.239779,1.57695,0.00157695
0.245361,0.000260359,0.260359,1.71229,0.00171229
0.251449,0.000262242,0.262242,1.72467,0.00172467
0.257457,0.000284412,0.284412,1.87048,0.00187048
0.263394,0.000278605,0.278605,1.83229,0.00183229
0.269397,0.000284784,0.284784,1.87292,0.00187292
0.275411,0.000328833,0.328833,2.16262,0.00216262
0.281384,0.000264602,0.264602,1.7402,0.0017402
0.287351,0.000311702,0.311702,2.04995,0.00204995
0.293378,0.000329364,0.329364,2.16611,0.00216611
0.299412,0.000321302,0.321302,2.11309,0.00211309
0.30534,0.000346363,0.346363,2.27791,0.00227791
0.311322,0.000349864,0.349864,2.30093,0.00230093
0.317303,0.000351137,0.351137,2.3093,0.0023093
0.323321,0.000385188,0.385188,2.53325,0.00253325
0.329319,0.000390333,0.390333,2.56709,0.00256709
0.335322,0.000433083,0.433083,2.84824,0.00284824
0.34131,0.000475754,0.475754,3.12887,0.00312887
0.345966,0.000506411,0.506411,3.33049,0.00333049
0.348854,-0.000455972,-0.455972,-2.99877,-0.00299877
0.342839,-0.000812321,-0.812321,-5.34235,-0.00534235
0.3368459,-0.000770234,-0.770234,-5.06556,-0.00506556
0.330883,-0.000785854,-0.785854,-5.16829,-0.00516829
0.324912,-0.000761176,-0.761176,-5.00599,-0.00500599
0.318867,-0.00076005,-0.76005,-4.99858,-0.00499858
0.3128849,-0.000748328,-0.748328,-4.92149,-0.00492149
0.306892,-0.000752147,-0.752147,-4.94661,-0.00494661
0.300923,-0.00076904,-0.76904,-5.05771,-0.00505771
0.2949703,-0.000754295,-0.754295,-4.96074,-0.00496074
0.288949,-0.000736394,-0.736394,-4.84301,-0.00484301
0.282977,-0.000752173,-0.752173,-4.94678,-0.00494678
0.276959,-0.000753075,-0.753075,-4.95271,-0.00495271
0.270994,-0.000736819,-0.736819,-4.8458,-0.0048458
0.264966,-0.00075106,-0.75106,-4.93946,-0.00493946
0.258962,-0.000750556,-0.750556,-4.93614,-0.00493614
0.2529653,-0.000789699,-0.789699,-5.19358,-0.00519358
0.246936,-0.000778269,-0.778269,-5.1184,-0.0051184
0.240963,-0.000788781,-0.788781,-5.18754,-0.00518754
0.2350242,-0.000781876,-0.781876,-5.14213,-0.00514213
0.228973,-0.000788532,-0.788532,-5.1859,-0.0051859
0.223015,-0.000794181,-0.794181,-5.22305,-0.00522305
0.217067,-0.000820648,-0.820648,-5.39712,-0.00539712
0.211026,-0.0008294,-0.8294,-5.45467,-0.00545467
0.205052,-0.000812904,-0.812904,-5.34619,-0.00534619
0.199064,-0.00079434,-0.79434,-5.2241,-0.0052241
0.193057,-0.000844516,-0.844516,-5.55409,-0.00555409
0.18705,-0.000867827,-0.867827,-5.7074,-0.0057074
0.18103,-0.00085889,-0.85889,-5.64862,-0.00564862
0.1750354,-0.000878276,-0.878276,-5.77612,-0.00577612
0.169077,-0.000899333,-0.899333,-5.9146,-0.0059146
0.163096,-0.000907369,-0.907369,-5.96745,-0.00596745
0.157094,-0.000926046,-0.926046,-6.09028,-0.00609028
0.151024,-0.000889892,-0.889892,-5.85251,-0.00585251
0.145128,-0.000924713,-0.924713,-6.08151,-0.00608151
0.139072,-0.000967198,-0.967198,-6.36092,-0.00636092
0.133096,-0.000987273,-0.987273,-6.49295,-0.00649295
0.127103,-0.000969425,-0.969425,-6.37557,-0.00637557
0.12111,-0.00101228,-1.01228,-6.65742,-0.00665742
0.11507,-0.00100326,-1.00326,-6.59812,-0.00659812
0.109078,-0.00102005,-1.02005,-6.70853,-0.00670853
0.103131,-0.00103535,-1.03535,-6.80916,-0.00680916
0.0971304,-0.00103628,-1.03628,-6.81527,-0.00681527
0.0911565,-0.00105379,-1.05379,-6.93038,-0.00693038
0.0851067,-0.00105296,-1.05296,-6.92497,-0.00692497
0.07918565,-0.00103785,-1.03785,-6.82556,-0.00682556
0.0731632,-0.00109919,-1.09919,-7.22897,-0.00722897
0.06716641,-0.00107779,-1.07779,-7.08822,-0.00708822
0.06120168,-0.00111791,-1.11791,-7.35211,-0.00735211
0.0551712,-0.00111465,-1.11465,-7.33065,-0.00733065
0.0491678,-0.00113064,-1.13064,-7.43583,-0.00743583
0.0431984,-0.00113677,-1.13677,-7.47611,-0.00747611
0.03715919,-0.00116851,-1.16851,-7.68489,-0.00768489
0.0312174,-0.00120532,-1.20532,-7.92697,-0.00792697
0.0252038,-0.00122004,-1.22004,-8.02377,-0.00802377
0.0191852,-0.00120476,-1.20476,-7.92331,-0.00792331
0.0132553,-0.00127398,-1.27398,-8.37853,-0.00837853
0.00720883,-0.00128843,-1.28843,-8.47358,-0.00847358
0.00122818,-0.00125788,-1.25788,-8.27266,-0.00827266
-0.004788545,-0.00133964,-1.33964,-8.81037,-0.00881037
-0.010786,-0.00134752,-1.34752,-8.86217,-0.00886217
-0.0168061,-0.00135195,-1.35195,-8.8913,-0.0088913
-0.02279098,-0.00137277,-1.37277,-9.02821,-0.00902821
-0.0287718,-0.00141976,-1.41976,-9.33727,-0.00933727
-0.0347217,-0.00144769,-1.44769,-9.52093,-0.00952093
-0.0407881,-0.00147927,-1.47927,-9.72865,-0.00972865
-0.04679253,-0.00152581,-1.52581,-10.0347,-0.0100347
-0.0527539,-0.00157191,-1.57191,-10.3379,-0.0103379
-0.0587657,-0.00163707,-1.63707,-10.7664,-0.0107664
-0.0647544,-0.00168488,-1.68488,-11.0809,-0.0110809
-0.0707472,-0.0017912,-1.7912,-11.7801,-0.0117801
-0.0767295,-0.00189333,-1.89333,-12.4518,-0.0124518
-0.082748,-0.00199458,-1.99458,-13.1177,-0.0131177
-0.0887579,-0.00215338,-2.15338,-14.162,-0.014162
-0.0946768,-0.00230908,-2.30908,-15.186,-0.015186
-0.100669,-0.00245966,-2.45966,-16.1763,-0.0161763
-0.106693,-0.00266058,-2.66058,-17.4977,-0.0174977
-0.112674,-0.00288348,-2.88348,-18.9636,-0.0189636
-0.118635,-0.0031896,-3.1896,-20.9769,-0.0209769
-0.124606,-0.00347726,-3.47726,-22.8687,-0.0228687
-0.13063,-0.00379927,-3.79927,-24.9864,-0.0249864
-0.136625,-0.00412758,-4.12758,-27.1457,-0.0271457
-0.142658,-0.00446858,-4.46858,-29.3883,-0.0293883
-0.148597,-0.0047494,-4.7494,-31.2351,-0.0312351
-0.154667,-0.0049301,-4.9301,-32.4236,-0.0324236
-0.160655,-0.00489077,-4.89077,-32.1649,-0.0321649
-0.166706,-0.00459235,-4.59235,-30.2023,-0.0302023
-0.172634,-0.00405484,-4.05484,-26.6673,-0.0266673
-0.178697,-0.00352059,-3.52059,-23.1537,-0.0231537
-0.184727,-0.00301396,-3.01396,-19.8217,-0.0198217
-0.190699,-0.00266631,-2.66631,-17.5354,-0.0175354
-0.195329,-0.00243412,-2.43412,-16.0084,-0.0160084
-0.195356,-0.00246086,-2.46086,-16.1842,-0.0161842

File: 1708030001Cu100_UHV_C01_cycle34.csv
E,<I>,I (raw),j,j
V vs. RHE,mA,\g(m)A,\g(m)A/cm\+(-2),mA/cm\+(-2)
-0.195501,-0.00242696,-2.42696,-15.9613,-0.0159613
-0.1983552,-0.000753208,-0.753208,-4.95359,-0.00495359
-0.192241,0.00023909,0.23909,1.57241,0.00157241
-0.18624,0.000542717,0.542717,3.56926,0.00356926
-0.18026,0.000942002,0.942002,6.19522,0.00619522
-0.174282,0.00132498,1.32498,8.71391,0.00871391
-0.1682809,0.00173638,1.73638,11.4196,0.0114196
-0.162356,0.00217027,2.17027,14.2731,0.0142731
-0.156295,0.00254078,2.54078,16.7099,0.0167099
-0.150369,0.00285627,2.85627,18.7847,0.0187847
-0.144273,0.00299536,2.99536,19.6995,0.0196995
-0.138331,0.0030785,3.0785,20.2462,0.0202462
-0.132324,0.00306978,3.06978,20.1889,0.0201889
-0.126337,0.0029603,2.9603,19.4689,0.0194689
-0.120324,0.00280084,2.80084,18.4201,0.0184201
-0.1143086,0.00263665,2.63665,17.3404,0.0173404
-0.108283,0.00240882,2.40882,15.842,0.015842
-0.102304,0.00214462,2.14462,14.1044,0.0141044
-0.0962763,0.00192549,1.92549,12.6633,0.0126633
-0.0903342,0.001697,1.697,11.1606,0.0111606
-0.0843425,0.00152157,1.52157,10.0068,0.0100068
-0.0783784,0.00139889,1.39889,9.2,0.0092
-0.072352,0.00120786,1.20786,7.9437,0.0079437
-0.0663412,0.00108884,1.08884,7.16094,0.00716094
-0.0603751,0.000976446,0.976446,6.42175,0.00642175
-0.0543883,0.000887636,0.887636,5.83767,0.00583767
-0.0484037,0.000817252,0.817252,5.37478,0.00537478
-0.0424075,0.000775297,0.775297,5.09886,0.00509886
-0.03636,0.000742412,0.742412,4.88259,0.00488259
-0.0303775,0.000651688,0.651688,4.28592,0.00428592
-0.0244327,0.000605039,0.605039,3.97913,0.00397913
-0.018341,0.000578944,0.578944,3.80751,0.00380751
-0.0124546,0.000507525,0.507525,3.33781,0.00333781
-0.00641793,0.000465703,0.465703,3.06277,0.00306277
-0.000448105,0.000443241,0.443241,2.91504,0.00291504
0.00556183,0.000462918,0.462918,3.04445,0.00304445
0.0115987,0.00039691,0.39691,2.61034,0.00261034
0.0175847,0.000393224,0.393224,2.5861,0.0025861
0.02355485,0.000412751,0.412751,2.71452,0.00271452
0.0295689,0.000414944,0.414944,2.72894,0.00272894
0.0355752,0.000422369,0.422369,2.77778,0.00277778
0.0415654,0.000448465,0.448465,2.9494,0.0029494
0.0475327,0.000499198,0.499198,3.28305,0.00328305
0.0535651,0.000407571,0.407571,2.68045,0.00268045
0.0595324,0.000365776,0.365776,2.40558,0.00240558
0.0655574,0.000341706,0.341706,2.24728,0.00224728
0.0715531,0.000349439,0.349439,2.29814,0.00229814
0.0775361,0.000313584,0.313584,2.06234,0.00206234
0.08352799,0.000333315,0.333315,2.1921,0.0021921
0.0895277,0.000317456,0.317456,2.0878,0.0020878
0.0955298,0.000301385,0.301385,1.98211,0.00198211
0.101547,0.000328727,0.328727,2.16193,0.00216193
0.107463,0.000325564,0.325564,2.14112,0.00214112
0.113482,0.000321567,0.321567,2.11483,0.00211483
0.119494,0.000313956,0.313956,2.06478,0.00206478
0.125523,0.000307564,0.307564,2.02274,0.00202274
0.131487,0.000302393,0.302393,1.98873,0.00198873
0.137487,0.000295551,0.295551,1.94373,0.00194373
0.143454,0.000293562,0.293562,1.93065,0.00193065
0.149445,0.000288444,0.288444,1.89699,0.00189699
0.1554437,0.00028245,0.28245,1.85758,0.00185758
0.161476,0.000268845,0.268845,1.7681,0.0017681
0.167478,0.000278499,0.278499,1.83159,0.00183159
0.1734561,0.000266167,0.266167,1.75049,0.00175049
0.179465,0.000257415,0.257415,1.69293,0.00169293
0.185458,0.000257123,0.257123,1.69101,0.00169101
0.191452,0.000273168,0.273168,1.79653,0.00179653
0.197458,0.00026439,0.26439,1.7388,0.0017388
0.203447,0.000249141,0.249141,1.63851,0.00163851
0.209444,0.000216071,0.216071,1.42102,0.00142102
0.215425,0.000234184,0.234184,1.54014,0.00154014
0.2214212,0.00023962,0.23962,1.5759,0.0015759
0.227442,0.000247974,0.247974,1.63084,0.00163084
0.233372,0.000242591,0.242591,1.59543,0.00159543
0.239391,0.000226016,0.226016,1.48643,0.00148643
0.245401,0.000248611,0.248611,1.63502,0.00163502
0.251394,0.000255691,0.255691,1.68159,0.00168159
0.257425,0.000237499,0.237499,1.56195,0.00156195
0.263377,0.000266458,0.266458,1.7524,0.0017524
0.269394,0.000284041,0.284041,1.86804,0.00186804
0.2753489,0.000312285,0.312285,2.05379,0.00205379
0.28133,0.000317695,0.317695,2.08937,0.00208937
0.28738,0.000278366,0.278366,1.83072,0.00183072
0.293359,0.000294411,0.294411,1.93624,0.00193624
0.297447,0.000296453,0.296453,1.94966,0.00194966
0.2972616,-0.000610849,-0.610849,-4.01734,-0.00401734
0.290823,-0.0006196,-0.6196,-4.07489,-0.00407489
0.284891,-0.000668821,-0.668821,-4.3986,-0.0043986
0.278904,-0.000664499,-0.664499,-4.37017,-0.00437017
0.272939,-0.00063164,-0.63164,-4.15408,-0.00415408
0.266943,-0.000709583,-0.709583,-4.66668,-0.00466668
0.260963,-0.000714515,-0.714515,-4.69912,-0.00469912
0.254975,-0.000727165,-0.727165,-4.78231,-0.00478231
0.24896,-0.000710564,-0.710564,-4.67313,-0.00467313
0.2429693,-0.000725176,-0.725176,-4.76923,-0.00476923
0.236989,-0.000708204,-0.708204,-4.65761,-0.00465761
0.230964,-0.00072637,-0.72637,-4.77708,-0.00477708
0.2250265,-0.000762278,-0.762278,-5.01323,-0.00501323
0.21903,-0.000782512,-0.782512,-5.14631,-0.00514631
0.212997,-0.000786225,-0.786225,-5.17073,-0.00517073
0.207024,-0.000806327,-0.806327,-5.30293,-0.00530293
0.201022,-0.00081972,-0.81972,-5.39101,-0.00539101
0.195062,-0.000834651,-0.834651,-5.48921,-0.00548921
0.1890365,-0.000813514,-0.813514,-5.3502,-0.0053502
0.183025,-0.000833749,-0.833749,-5.48328,-0.00548328
0.177034,-0.000877268,-0.877268,-5.76949,-0.00576949
0.171049,-0.000869365,-0.869365,-5.71751,-0.00571751
0.165044,-0.000869657,-0.869657,-5.71943,-0.00571943
0.159097,-0.000886126,-0.886126,-5.82774,-0.00582774
0.153082,-0.000894931,-0.894931,-5.88565,-0.00588565
0.147088,-0.000906122,-0.906122,-5.95925,-0.00595925
0.141042,-0.000936567,-0.936567,-6.15947,-0.00615947
0.135104,-0.000956404,-0.956404,-6.28993,-0.00628993
0.129079,-0.000962371,-0.962371,-6.32918,-0.00632918
0.123094,-0.000950914,-0.950914,-6.25383,-0.00625383
0.117104,-0.000953566,-0.953566,-6.27127,-0.00627127
0.111086,-0.000990827,-0.990827,-6.51632,-0.00651632
0.105127,-0.00101056,-1.01056,-6.64609,-0.00664609
0.0991262,-0.00100626,-1.00626,-6.61783,-0.00661783
0.0931254,-0.00102522,-1.02522,-6.74254,-0.00674254
0.0871261,-0.00100006,-1.00006,-6.57702,-0.00657702
0.0811408,-0.00107405,-1.07405,-7.06363,-0.00706363
0.0750882,-0.00105803,-1.05803,-6.95828,-0.00695828
0.06909503,-0.00107097,-1.07097,-7.0434,-0.0070434
0.0631655,-0.00108686,-1.08686,-7.14787,-0.00714787
0.0571677,-0.00109102,-1.09102,-7.17525,-0.00717525
0.0511643,-0.00109139,-1.09139,-7.1777,-0.0071777
0.0451688,-0.00111383,-1.11383,-7.32525,-0.00732525
0.0391487,-0.00115379,-1.15379,-7.58809,-0.00758809
0.0331341,-0.00116734,-1.16734,-7.67721,-0.00767721
0.0271751,-0.0012002,-1.2002,-7.89331,-0.00789331
0.0212148,-0.00120853,-1.20853,-7.94808,-0.00794808
0.01515332,-0.00124221,-1.24221,-8.16958,-0.00816958
0.009141475,-0.00123272,-1.23272,-8.10714,-0.00810714
0.003228311,-0.00126353,-1.26353,-8.30981,-0.00830981
-0.00282746,-0.00129135,-1.29135,-8.49277,-0.00849277
-0.00881236,-0.00127806,-1.27806,-8.40539,-0.00840539
-0.0147881,-0.00131583,-1.31583,-8.65375,-0.00865375
-0.020807,-0.00132676,-1.32676,-8.72561,-0.00872561
-0.0267961,-0.00137473,-1.37473,-9.04112,-0.00904112
-0.0327534,-0.00139974,-1.39974,-9.20559,-0.00920559
-0.0388001,-0.00145021,-1.45021,-9.5375,-0.0095375
-0.0447684,-0.00148943,-1.48943,-9.79545,-0.00979545
-0.050765,-0.00154939,-1.54939,-10.1898,-0.0101898
-0.0567282,-0.00156117,-1.56117,-10.2672,-0.0102672
-0.06275706,-0.00167067,-1.67067,-10.9874,-0.0109874
-0.0687787,-0.00171941,-1.71941,-11.308,-0.011308
-0.0747088,-0.00182995,-1.82995,-12.0349,-0.0120349
-0.0807145,-0.00193998,-1.93998,-12.7585,-0.0127585
-0.0867841,-0.00203452,-2.03452,-13.3803,-0.0133803
-0.0926915,-0.00218362,-2.18362,-14.3609,-0.0143609
-0.0987197,-0.00233067,-2.33067,-15.328,-0.015328
-0.104671,-0.00254254,-2.54254,-16.7214,-0.0167214
-0.110691,-0.00277573,-2.77573,-18.255,-0.018255
-0.116655,-0.0030439,-3.0439,-20.0186,-0.0200186
-0.122684,-0.00331443,-3.31443,-21.7978,-0.0217978
-0.128631,-0.0036781,-3.6781,-24.1896,-0.0241896
-0.134625,-0.00399344,-3.99344,-26.2635,-0.0262635
-0.140636,-0.00433508,-4.33508,-28.5103,-0.0285103
-0.146688,-0.00464891,-4.64891,-30.5743,-0.0305743
-0.152613,-0.00487836,-4.87836,-32.0833,-0.0320833
-0.158664,-0.0048995,-4.8995,-32.2223,-0.0322223
-0.164689,-0.00469779,-4.69779,-30.8957,-0.0308957
-0.170714,-0.00424146,-4.24146,-27.8946,-0.0278946
-0.176731,-0.00365118,-3.65118,-24.0125,-0.0240125
-0.182747,-0.00312783,-3.12783,-20.5707,-0.0205707
-0.188703,-0.00271274,-2.71274,-17.8408,-0.0178408
-0.194664,-0.0024098,-2.4098,-15.8484,-0.0158484
-0.195352,-0.00243412,-2.43412,-16.0084,-0.0160084