Folder: electrochemistry-data/literature/rawdata/engstfeld_2018_polycrystalline_17743 (part 2)

File: 1708030001Cu100_UHV_C01_cycle31.csv
E,<I>,I (raw),j,j
V vs. RHE,mA,\g(m)A,\g(m)A/cm\+(-2),mA/cm\+(-2)
-0.195448,-0.00257017,-2.57017,-16.9031,-0.0169031
-0.197632,-0.000505034,-0.505034,-3.32143,-0.00332143
-0.190151,0.000132559,0.132559,0.871795,0.000871795
-0.183222,0.000546828,0.546828,3.59629,0.00359629
-0.176189,0.000946881,0.946881,6.22731,0.00622731
-0.16926,0.00146201,1.46201,9.6151,0.0096151
-0.162263,0.00196262,1.96262,12.9075,0.0129075
-0.155264,0.00238384,2.38384,15.6777,0.0156777
-0.148324,0.00269778,2.69778,17.7424,0.0177424
-0.141324,0.00288836,2.88836,18.9957,0.0189957
-0.134323,0.00293904,2.93904,19.329,0.019329
-0.127327,0.00288894,2.88894,18.9995,0.0189995
-0.120326,0.00275851,2.75851,18.1418,0.0181418
-0.113267,0.0025157,2.5157,16.5449,0.0165449
-0.106326,0.00229038,2.29038,15.063,0.015063
-0.09937121,0.00200569,2.00569,13.1907,0.0131907
-0.0922686,0.00176531,1.76531,11.6099,0.0116099
-0.0853385,0.00154358,1.54358,10.1516,0.0101516
-0.0783712,0.00135134,1.35134,8.88727,0.00888727
-0.0713448,0.0011828,1.1828,7.77888,0.00777888
-0.0643504,0.00104702,1.04702,6.88589,0.00688589
-0.0573458,0.000950382,0.950382,6.25033,0.00625033
-0.0503187,0.000866791,0.866791,5.70058,0.00570058
-0.0433474,0.000766572,0.766572,5.04148,0.00504148
-0.0363655,0.000744454,0.744454,4.89602,0.00489602
-0.0293348,0.000658371,0.658371,4.32987,0.00432987
-0.02236761,0.000565392,0.565392,3.71838,0.00371838
-0.0154048,0.000524763,0.524763,3.45118,0.00345118
-0.00837753,0.00046443,0.46443,3.05439,0.00305439
-0.00141623,0.000430909,0.430909,2.83394,0.00283394
0.00561807,0.000419611,0.419611,2.75964,0.00275964
0.0125925,0.000382802,0.382802,2.51755,0.00251755
0.0195545,0.000385003,0.385003,2.53203,0.00253203
0.0265858,0.000346124,0.346124,2.27634,0.00227634
0.03354007,0.000371716,0.371716,2.44465,0.00244465
0.0405434,0.000411947,0.411947,2.70923,0.00270923
0.0475709,0.000439926,0.439926,2.89324,0.00289324
0.0545617,0.000433375,0.433375,2.85016,0.00285016
0.0615631,0.000371928,0.371928,2.44604,0.00244604
0.0685638,0.000321037,0.321037,2.11135,0.00211135
0.0755597,0.000310269,0.310269,2.04053,0.00204053
0.08252082,0.000312205,0.312205,2.05327,0.00205327
0.089557,0.000346655,0.346655,2.27983,0.00227983
0.0965319,0.000281283,0.281283,1.8499,0.0018499
0.103527,0.000286322,0.286322,1.88304,0.00188304
0.11051,0.000281973,0.281973,1.85444,0.00185444
0.117551,0.000298866,0.298866,1.96554,0.00196554
0.124504,0.000275555,0.275555,1.81223,0.00181223
0.131474,0.000264814,0.264814,1.74159,0.00174159
0.138499,0.000275581,0.275581,1.8124,0.0018124
0.145528,0.000263541,0.263541,1.73322,0.00173322
0.152471,0.000272664,0.272664,1.79322,0.00179322
0.159543,0.000242246,0.242246,1.59317,0.00159317
0.16648,0.000293085,0.293085,1.92751,0.00192751
0.173487,0.000246277,0.246277,1.61968,0.00161968
0.180531,0.000241503,0.241503,1.58828,0.00158828
0.18743,0.000262215,0.262215,1.7245,0.0017245
0.194488,0.000221772,0.221772,1.45852,0.00145852
0.2015,0.000211668,0.211668,1.39207,0.00139207
0.208455,0.000219571,0.219571,1.44404,0.00144404
0.21544,0.000216734,0.216734,1.42538,0.00142538
0.22247,0.000209122,0.209122,1.37532,0.00137532
0.2294094,0.000206603,0.206603,1.35876,0.00135876
0.2364352,0.000215752,0.215752,1.41893,0.00141893
0.2433982,0.000234369,0.234369,1.54137,0.00154137
0.250399,0.000229224,0.229224,1.50753,0.00150753
0.257449,0.000221931,0.221931,1.45957,0.00145957
0.264442,0.000252509,0.252509,1.66066,0.00166066
0.2713953,0.00024511,0.24511,1.612,0.001612
0.278354,0.000278976,0.278976,1.83473,0.00183473
0.285392,0.000285553,0.285553,1.87798,0.00187798
0.292373,0.000304727,0.304727,2.00408,0.00200408
0.299425,0.000286693,0.286693,1.88548,0.00188548
0.306384,0.000348034,0.348034,2.2889,0.0022889
0.313404,0.000318464,0.318464,2.09443,0.00209443
0.3203519,0.000369356,0.369356,2.42913,0.00242913
0.327321,0.000374209,0.374209,2.46104,0.00246104
0.33439,0.00040895,0.40895,2.68952,0.00268952
0.341362,0.000475834,0.475834,3.12939,0.00312939
0.348336,0.000533117,0.533117,3.50612,0.00350612
0.355333,0.000667785,0.667785,4.39179,0.00439179
0.362281,0.000805,0.805,5.2942,0.0052942
0.369307,0.000833005,0.833005,5.47838,0.00547838
0.376302,0.000908905,0.908905,5.97755,0.00597755
0.383282,0.000984725,0.984725,6.47619,0.00647619
0.390258,0.00112817,1.12817,7.41959,0.00741959
0.395896,0.00125109,1.25109,8.228,0.008228
0.398996,-0.000716823,-0.716823,-4.71429,-0.00471429
0.391709,-0.00142652,-1.42652,-9.38175,-0.00938175
0.3847785,-0.0013171,-1.3171,-8.66212,-0.00866212
0.377785,-0.00129154,-1.29154,-8.49399,-0.00849399
0.370779,-0.001219,-1.219,-8.01697,-0.00801697
0.363813,-0.00120864,-1.20864,-7.94877,-0.00794877
0.35683,-0.00116456,-1.16456,-7.6589,-0.0076589
0.349841,-0.00114602,-1.14602,-7.53699,-0.00753699
0.342822,-0.000984648,-0.984648,-6.47568,-0.00647568
0.335848,-0.000930414,-0.930414,-6.11901,-0.00611901
0.328851,-0.000882864,-0.882864,-5.80629,-0.00580629
0.321847,-0.000871832,-0.871832,-5.73373,-0.00573373
0.314873,-0.00081858,-0.81858,-5.38351,-0.00538351
0.30785,-0.000846558,-0.846558,-5.56752,-0.00556752
0.300889,-0.000809536,-0.809536,-5.32404,-0.00532404
0.293916,-0.000809881,-0.809881,-5.3263,-0.0053263
0.286887,-0.000805399,-0.805399,-5.29683,-0.00529683
0.279905,-0.000784979,-0.784979,-5.16253,-0.00516253
0.272911,-0.000810809,-0.810809,-5.33241,-0.00533241
0.265893,-0.000800467,-0.800467,-5.26439,-0.00526439
0.258976,-0.000805983,-0.805983,-5.30067,-0.00530067
0.2519477,-0.000812241,-0.812241,-5.34183,-0.00534183
0.244918,-0.00081911,-0.81911,-5.387,-0.005387
0.237983,-0.000822054,-0.822054,-5.40636,-0.00540636
0.230893,-0.000820569,-0.820569,-5.39659,-0.00539659
0.22394,-0.000819269,-0.819269,-5.38805,-0.00538805
0.216983,-0.000858863,-0.858863,-5.64844,-0.00564844
0.209943,-0.000851464,-0.851464,-5.59978,-0.00559978
0.202979,-0.00084563,-0.84563,-5.56141,-0.00556141
0.195979,-0.000907475,-0.907475,-5.96814,-0.00596814
0.18899,-0.000890077,-0.890077,-5.85373,-0.00585373
0.18198,-0.00090835,-0.90835,-5.9739,-0.0059739
0.17504,-0.000904372,-0.904372,-5.94774,-0.00594774
0.168024,-0.000944152,-0.944152,-6.20936,-0.00620936
0.161017,-0.00095163,-0.95163,-6.25854,-0.00625854
0.153995,-0.000955131,-0.955131,-6.28156,-0.00628156
0.147,-0.000974278,-0.974278,-6.40749,-0.00640749
0.140068,-0.00099987,-0.99987,-6.5758,-0.0065758
0.1330675,-0.00100801,-1.00801,-6.62934,-0.00662934
0.1260417,-0.000998438,-0.998438,-6.56638,-0.00656638
0.119017,-0.00103997,-1.03997,-6.83951,-0.00683951
0.112024,-0.00103649,-1.03649,-6.81666,-0.00681666
0.105084,-0.00107012,-1.07012,-7.03782,-0.00703782
0.0980526,-0.00106288,-1.06288,-6.9902,-0.0069902
0.0910014,-0.00107723,-1.07723,-7.08456,-0.00708456
0.0840239,-0.00110661,-1.10661,-7.27781,-0.00727781
0.0770556,-0.00109136,-1.09136,-7.17752,-0.00717752
0.0700608,-0.00113279,-1.13279,-7.44995,-0.00744995
0.0631171,-0.00113658,-1.13658,-7.47489,-0.00747489
0.056072,-0.00115788,-1.15788,-7.61495,-0.00761495
0.0491063,-0.00116077,-1.16077,-7.63396,-0.00763396
0.0421114,-0.00120614,-1.20614,-7.93238,-0.00793238
0.035096,-0.00119954,-1.19954,-7.88895,-0.00788895
0.0281245,-0.00123526,-1.23526,-8.12388,-0.00812388
0.021113,-0.00126717,-1.26717,-8.3337,-0.0083337
0.014158,-0.00128793,-1.28793,-8.47027,-0.00847027
0.00714602,-0.00132707,-1.32707,-8.7277,-0.0087277
0.000127847,-0.00134105,-1.34105,-8.81962,-0.00881962
-0.00685425,-0.00135089,-1.35089,-8.88432,-0.00888432
-0.0138442,-0.00140417,-1.40417,-9.23472,-0.00923472
-0.02083414,-0.00142745,-1.42745,-9.38785,-0.00938785
-0.02785486,-0.00146949,-1.46949,-9.6643,-0.0096643
-0.0348461,-0.00152558,-1.52558,-10.0332,-0.0100332
-0.0418568,-0.00158172,-1.58172,-10.4024,-0.0104024
-0.0488264,-0.00161479,-1.61479,-10.6199,-0.0106199
-0.0557909,-0.0016748,-1.6748,-11.0146,-0.0110146
-0.0627883,-0.00175336,-1.75336,-11.5312,-0.0115312
-0.06982,-0.00188927,-1.88927,-12.4251,-0.0124251
-0.0768577,-0.00198639,-1.98639,-13.0638,-0.0130638
-0.0838133,-0.00211893,-2.11893,-13.9355,-0.0139355
-0.09076374,-0.00228216,-2.28216,-15.009,-0.015009
-0.0977609,-0.00246932,-2.46932,-16.2398,-0.0162398
-0.104801,-0.00267975,-2.67975,-17.6238,-0.0176238
-0.111754,-0.00295898,-2.95898,-19.4602,-0.0194602
-0.11877,-0.00331517,-3.31517,-21.8027,-0.0218027
-0.125717,-0.00360262,-3.60262,-23.6932,-0.0236932
-0.132725,-0.0039979,-3.9979,-26.2928,-0.0262928
-0.139766,-0.00436464,-4.36464,-28.7047,-0.0287047
-0.1466984,-0.0046927,-4.6927,-30.8622,-0.0308622
-0.153714,-0.00491698,-4.91698,-32.3372,-0.0323372
-0.160736,-0.00490361,-4.90361,-32.2493,-0.0322493
-0.167827,-0.00446974,-4.46974,-29.3959,-0.0293959
-0.174768,-0.00385146,-3.85146,-25.3297,-0.0253297
-0.181813,-0.00327836,-3.27836,-21.5606,-0.0215606
-0.188782,-0.0028206,-2.8206,-18.5501,-0.0185501
-0.195287,-0.00249904,-2.49904,-16.4353,-0.0164353
-0.195348,-0.00246467,-2.46467,-16.2093,-0.0162093

File: 1708030001Cu100_UHV_C01_cycle32.csv
E,<I>,I (raw),j,j
V vs. RHE,mA,\g(m)A,\g(m)A/cm\+(-2),mA/cm\+(-2)
-0.1954094,-0.00249379,-2.49379,-16.4008,-0.0164008
-0.198342,-0.000854594,-0.854594,-5.62036,-0.00562036
-0.192265,0.000153404,0.153404,1.00888,0.00100888
-0.186261,0.00045056,0.45056,2.96318,0.00296318
-0.18026,0.000798847,0.798847,5.25374,0.00525374
-0.17427,0.00118278,1.18278,7.77871,0.00777871
-0.168271,0.00163102,1.63102,10.7266,0.0107266
-0.1622909,0.00204457,2.04457,13.4464,0.0134464
-0.1564,0.00244616,2.44616,16.0875,0.0160875
-0.150337,0.00270136,2.70136,17.7659,0.0177659
-0.144315,0.00286552,2.86552,18.8455,0.0188455
-0.138338,0.00299685,2.99685,19.7092,0.0197092
-0.132314,0.00298574,2.98574,19.6361,0.0196361
-0.1263113,0.0029267,2.9267,19.2479,0.0192479
-0.120316,0.00274,2.74,18.02,0.01802
-0.114309,0.00258393,2.58393,16.9936,0.0169936
-0.108286,0.00238015,2.38015,15.6534,0.0156534
-0.102334,0.00213681,2.13681,14.0531,0.0140531
-0.0962752,0.00189486,1.89486,12.4619,0.0124619
-0.090327,0.00169909,1.69909,11.1743,0.0111743
-0.0843591,0.00150794,1.50794,9.91718,0.00991718
-0.078343,0.00131325,1.31325,8.63682,0.00863682
-0.0723547,0.0012329,1.2329,8.10835,0.00810835
-0.0663632,0.00108608,1.08608,7.1428,0.0071428
-0.0603614,0.000950294,0.950294,6.24975,0.00624975
-0.0543939,0.000891852,0.891852,5.8654,0.0058654
-0.0483627,0.000813062,0.813062,5.34722,0.00534722
-0.0423734,0.00076697,0.76697,5.04409,0.00504409
-0.0363972,0.000709289,0.709289,4.66475,0.00466475
-0.0303431,0.000674627,0.674627,4.43679,0.00443679
-0.0243887,0.000573003,0.573003,3.76844,0.00376844
-0.018377,0.000540914,0.540914,3.5574,0.0035574
-0.0123937,0.000487529,0.487529,3.20631,0.00320631
-0.00639883,0.000469548,0.469548,3.08806,0.00308806
-0.000372981,0.000423271,0.423271,2.78371,0.00278371
0.00557753,0.000413565,0.413565,2.71987,0.00271987
0.0116074,0.000376172,0.376172,2.47395,0.00247395
0.0175575,0.000418683,0.418683,2.75353,0.00275353
0.02356204,0.000391183,0.391183,2.57267,0.00257267
0.0295731,0.000401021,0.401021,2.63737,0.00263737
0.035585,0.000412,0.412,2.70958,0.00270958
0.0416295,0.00044645,0.44645,2.93614,0.00293614
0.0475838,0.000494053,0.494053,3.24921,0.00324921
0.0535594,0.000411814,0.411814,2.70836,0.00270836
0.0596177,0.000395133,0.395133,2.59865,0.00259865
0.065603,0.000335985,0.335985,2.20966,0.00220966
0.0715992,0.000303348,0.303348,1.99501,0.00199501
0.0775507,0.000316316,0.316316,2.0803,0.0020803
0.0835386,0.000318013,0.318013,2.09146,0.00209146
0.08950568,0.00028908,0.28908,1.90118,0.00190118
0.095533,0.000303931,0.303931,1.99885,0.00199885
0.101555,0.000288205,0.288205,1.89542,0.00189542
0.107514,0.000285094,0.285094,1.87497,0.00187497
0.1134705,0.000280381,0.280381,1.84397,0.00184397
0.119529,0.000289584,0.289584,1.90449,0.00190449
0.125508,0.000319074,0.319074,2.09844,0.00209844
0.131539,0.000270728,0.270728,1.78048,0.00178048
0.137504,0.000250069,0.250069,1.64462,0.00164462
0.143489,0.000316581,0.316581,2.08204,0.00208204
0.149514,0.000256964,0.256964,1.68996,0.00168996
0.155477,0.000293217,0.293217,1.92839,0.00192839
0.161506,0.000256301,0.256301,1.6856,0.0016856
0.167491,0.000244155,0.244155,1.60572,0.00160572
0.173485,0.000258688,0.258688,1.7013,0.0017013
0.1794809,0.000261048,0.261048,1.71682,0.00171682
0.185444,0.000219836,0.219836,1.44579,0.00144579
0.191439,0.000206895,0.206895,1.36067,0.00136067
0.197439,0.000241397,0.241397,1.58758,0.00158758
0.203419,0.000248849,0.248849,1.63659,0.00163659
0.20948,0.000226413,0.226413,1.48904,0.00148904
0.215448,0.000204906,0.204906,1.34759,0.00134759
0.22144,0.00022339,0.22339,1.46916,0.00146916
0.227427,0.000231107,0.231107,1.51991,0.00151991
0.233441,0.000201378,0.201378,1.3244,0.0013244
0.239423,0.000229994,0.229994,1.51259,0.00151259
0.245432,0.000234131,0.234131,1.5398,0.0015398
0.251395,0.000244129,0.244129,1.60555,0.00160555
0.2573908,0.0002589,0.2589,1.7027,0.0017027
0.263406,0.0002589,0.2589,1.7027,0.0017027
0.269396,0.000285951,0.285951,1.8806,0.0018806
0.275359,0.000262587,0.262587,1.72694,0.00172694
0.281361,0.000298521,0.298521,1.96327,0.00196327
0.287373,0.000308705,0.308705,2.03024,0.00203024
0.2933549,0.000290565,0.290565,1.91095,0.00191095
0.299356,0.000337002,0.337002,2.21634,0.00221634
0.3053818,0.000310747,0.310747,2.04367,0.00204367
0.311328,0.000337903,0.337903,2.22227,0.00222227
0.317326,0.00039516,0.39516,2.59883,0.00259883
0.323338,0.000353603,0.353603,2.32552,0.00232552
0.329352,0.000402453,0.402453,2.64679,0.00264679
0.335346,0.000435311,0.435311,2.86289,0.00286289
0.341357,0.000466393,0.466393,3.0673,0.0030673
0.345939,0.000502592,0.502592,3.30538,0.00330538
0.348885,-0.000470823,-0.470823,-3.09644,-0.00309644
0.342866,-0.000854037,-0.854037,-5.6167,-0.0056167
0.336837,-0.000783308,-0.783308,-5.15154,-0.00515154
0.330862,-0.000810783,-0.810783,-5.33224,-0.00533224
0.324879,-0.000793752,-0.793752,-5.22023,-0.00522023
0.318932,-0.000781929,-0.781929,-5.14247,-0.00514247
0.312914,-0.000788983,-0.788983,-5.18887,-0.00518887
0.306946,-0.000773602,-0.773602,-5.08771,-0.00508771
0.300971,-0.000772833,-0.772833,-5.08265,-0.00508265
0.294959,-0.000747453,-0.747453,-4.91574,-0.00491574
0.288973,-0.000771904,-0.771904,-5.07655,-0.00507655
0.282977,-0.000769015,-0.769015,-5.05754,-0.00505754
0.277024,-0.000748991,-0.748991,-4.92585,-0.00492585
0.270923,-0.000786066,-0.786066,-5.16968,-0.00516968
0.264971,-0.000786809,-0.786809,-5.17457,-0.00517457
0.259026,-0.000778694,-0.778694,-5.1212,-0.0051212
0.253,-0.000757212,-0.757212,-4.97992,-0.00497992
0.247013,-0.000798955,-0.798955,-5.25445,-0.00525445
0.240982,-0.000791549,-0.791549,-5.20574,-0.00520574
0.235004,-0.000799432,-0.799432,-5.25759,-0.00525759
0.229006,-0.000829745,-0.829745,-5.45694,-0.00545694
0.223051,-0.000833749,-0.833749,-5.48328,-0.00548328
0.217079,-0.000782353,-0.782353,-5.14526,-0.00514526
0.211018,-0.000838098,-0.838098,-5.51188,-0.00551188
0.2050454,-0.000835128,-0.835128,-5.49235,-0.00549235
0.199067,-0.000837732,-0.837732,-5.50947,-0.00550947
0.1930438,-0.00087154,-0.87154,-5.73181,-0.00573181
0.187043,-0.00087101,-0.87101,-5.72833,-0.00572833
0.181032,-0.00090164,-0.90164,-5.92977,-0.00592977
0.1750685,-0.000908085,-0.908085,-5.97216,-0.00597216
0.169079,-0.000904398,-0.904398,-5.94791,-0.00594791
0.1630896,-0.000920204,-0.920204,-6.05186,-0.00605186
0.157063,-0.00092253,-0.92253,-6.06716,-0.00606716
0.151101,-0.000950782,-0.950782,-6.25296,-0.00625296
0.145096,-0.00097465,-0.97465,-6.40993,-0.00640993
0.139081,-0.000989687,-0.989687,-6.50882,-0.00650882
0.133116,-0.000978124,-0.978124,-6.43278,-0.00643278
0.1270856,-0.00102647,-1.02647,-6.75073,-0.00675073
0.121068,-0.00102443,-1.02443,-6.7373,-0.0067373
0.115095,-0.00101207,-1.01207,-6.656,-0.006656
0.109081,-0.00103069,-1.03069,-6.77846,-0.00677846
0.103141,-0.00103254,-1.03254,-6.79067,-0.00679067
0.09714967,-0.0010693,-1.0693,-7.03241,-0.00703241
0.0911762,-0.00107169,-1.07169,-7.04811,-0.00704811
0.0851404,-0.00105962,-1.05962,-6.96875,-0.00696875
0.0791447,-0.00106636,-1.06636,-7.01305,-0.00701305
0.0731821,-0.00105222,-1.05222,-6.92009,-0.00692009
0.0671581,-0.00109492,-1.09492,-7.20089,-0.00720089
0.0611628,-0.00115061,-1.15061,-7.56716,-0.00756716
0.05517371,-0.00113305,-1.13305,-7.4517,-0.0074517
0.049199,-0.00111651,-1.11651,-7.34286,-0.00734286
0.04314493,-0.00114517,-1.14517,-7.5314,-0.0075314
0.0371465,-0.00118795,-1.18795,-7.81273,-0.00781273
0.0311868,-0.00121763,-1.21763,-8.0079,-0.0080079
0.0251648,-0.00124651,-1.24651,-8.19783,-0.00819783
0.01920642,-0.00127568,-1.27568,-8.38969,-0.00838969
0.0132226,-0.00126266,-1.26266,-8.30405,-0.00830405
0.007227506,-0.00132254,-1.32254,-8.69788,-0.00869788
0.00121757,-0.0013228,-1.3228,-8.69962,-0.00869962
-0.004813374,-0.00133728,-1.33728,-8.79485,-0.00879485
-0.0107957,-0.00136582,-1.36582,-8.98252,-0.00898252
-0.0167679,-0.00137163,-1.37163,-9.02071,-0.00902071
-0.0227999,-0.00140708,-1.40708,-9.2539,-0.0092539
-0.0288245,-0.00143745,-1.43745,-9.45361,-0.00945361
-0.0347769,-0.00148293,-1.48293,-9.75272,-0.00975272
-0.0407979,-0.00151202,-1.51202,-9.94405,-0.00994405
-0.0467382,-0.00156684,-1.56684,-10.3046,-0.0103046
-0.0526949,-0.00162198,-1.62198,-10.6672,-0.0106672
-0.0586889,-0.00168279,-1.68279,-11.0671,-0.0110671
-0.0647226,-0.00174044,-1.74044,-11.4463,-0.0114463
-0.07071089,-0.00183045,-1.83045,-12.0382,-0.0120382
-0.0766712,-0.0019242,-1.9242,-12.6548,-0.0126548
-0.0827431,-0.00206253,-2.06253,-13.5645,-0.0135645
-0.08870887,-0.002172,-2.172,-14.2845,-0.0142845
-0.0946235,-0.00231314,-2.31314,-15.2127,-0.0152127
-0.100643,-0.00250854,-2.50854,-16.4978,-0.0164978
-0.106669,-0.00271911,-2.71911,-17.8826,-0.0178826
-0.112674,-0.00295543,-2.95543,-19.4368,-0.0194368
-0.118609,-0.00326088,-3.26088,-21.4457,-0.0214457
-0.1246643,-0.00354086,-3.54086,-23.287,-0.023287
-0.130616,-0.00384904,-3.84904,-25.3138,-0.0253138
-0.136653,-0.00419791,-4.19791,-27.6082,-0.0276082
-0.1426332,-0.00452053,-4.52053,-29.7299,-0.0297299
-0.148623,-0.00474693,-4.74693,-31.2189,-0.0312189
-0.1545735,-0.00495002,-4.95002,-32.5546,-0.0325546
-0.160659,-0.00490812,-4.90812,-32.279,-0.032279
-0.166681,-0.00457757,-4.57757,-30.1051,-0.0301051
-0.1727,-0.00403052,-4.03052,-26.5073,-0.0265073
-0.178687,-0.00351179,-3.51179,-23.0958,-0.0230958
-0.184695,-0.00304034,-3.04034,-19.9953,-0.0199953
-0.1906537,-0.00268975,-2.68975,-17.6895,-0.0176895
-0.195306,-0.00241885,-2.41885,-15.9079,-0.0159079
-0.195333,-0.00241503,-2.41503,-15.8828,-0.0158828