Folder: electrochemistry-data/literature/rawdata/engstfeld_2018_polycrystalline_17743 (part 6)

File: engstfeld_2018_polycrystalline_17743_f4b_4.csv
E,<I>,I (raw),j,j
V vs. RHE,mA,\g(m)A,\g(m)A/cm\+(-2),mA/cm\+(-2)
-0.195302,-0.0042395,-4.2395,-27.8817,-0.0278817
-0.196541,-0.00133959,-1.33959,-8.81002,-0.00881002
-0.188178,-0.000810241,-0.810241,-5.32867,-0.00532867
-0.180188,0.000104103,0.104103,0.684651,0.000684651
-0.172223,0.00080073,0.80073,5.26612,0.00526612
-0.164254,0.00165695,1.65695,10.8972,0.0108972
-0.156298,0.00237697,2.37697,15.6325,0.0156325
-0.148242,0.00279699,2.79699,18.3949,0.0183949
-0.140292,0.00289353,2.89353,19.0297,0.0190297
-0.132186,0.00277618,2.77618,18.2579,0.0182579
-0.124286,0.00255187,2.55187,16.7828,0.0167828
-0.116285,0.00239601,2.39601,15.7577,0.0157577
-0.108233,0.00213553,2.13553,14.0447,0.0140447
-0.100277,0.00170013,1.70013,11.1811,0.0111811
-0.0922531,0.0015152,1.5152,9.96497,0.00996497
-0.08433,0.00115863,1.15863,7.61988,0.00761988
-0.0763013,0.00084226,0.84226,5.53925,0.00553925
-0.0682865,0.000675184,0.675184,4.44045,0.00444045
-0.0603482,0.000543221,0.543221,3.57257,0.00357257
-0.0523097,0.000337134,0.337134,2.21721,0.00221721
-0.0443571,0.00028672,0.28672,1.88566,0.00188566
-0.0363568,0.000187906,0.187906,1.23579,0.00123579
-0.0283553,8.69978e-05,0.0869978,0.572154,0.000572154
-0.0203446,8.4558e-05,0.084558,0.556108,0.000556108
-0.0123443,7.38488e-06,0.00738488,0.0485678,4.85678e-05
-0.0043864,1.44392e-05,0.0144392,0.0949615,9.49615e-05
0.00362261,-1.61383e-05,-0.0161383,-0.106136,-0.000106136
0.0116422,-3.25277e-05,-0.0325277,-0.213923,-0.000213923
0.0196016,-5.54675e-05,-0.0554675,-0.36479,-0.00036479
0.0276059,-3.88394e-05,-0.0388394,-0.255433,-0.000255433
0.0356164,-7.26789e-05,-0.0726789,-0.477984,-0.000477984
0.0435411,-1.81804e-05,-0.0181804,-0.119566,-0.000119566
0.0516163,-1.91616e-05,-0.0191616,-0.126019,-0.000126019
0.0596024,-7.81105e-06,-0.00781105,-0.0513706,-5.13706e-05
0.0675554,-3.74869e-05,-0.0374869,-0.246538,-0.000246538
0.0755816,-3.01409e-05,-0.0301409,-0.198226,-0.000198226
0.0835624,-2.67691e-05,-0.0267691,-0.176051,-0.000176051
0.09152469,-4.62866e-06,-0.00462866,-0.0304411,-3.04411e-05
0.0995441,1.44441e-06,0.00144441,0.00949938,9.49938e-06
0.107527,1.43596e-05,0.0143596,0.0944383,9.44383e-05
0.115492,4.80135e-05,0.0480135,0.315768,0.000315768
0.123535,4.24178e-05,0.0424178,0.278967,0.000278967
0.13147,2.93169e-05,0.0293169,0.192807,0.000192807
0.1395267,3.35601e-05,0.0335601,0.220713,0.000220713
0.147474,4.72709e-05,0.0472709,0.310884,0.000310884
0.155499,6.01066e-05,0.0601066,0.3953,0.0003953
0.163471,5.7932e-05,0.057932,0.380998,0.000380998
0.171519,4.4672e-05,0.044672,0.293792,0.000293792
0.179468,4.4778e-05,0.044778,0.29449,0.00029449
0.187481,4.69638e-05,0.0469638,0.308864,0.000308864
0.195449,4.64488e-05,0.0464488,0.305478,0.000305478
0.203427,4.31603e-05,0.0431603,0.28385,0.00028385
0.211441,5.76402e-05,0.0576402,0.37908,0.00037908
0.219503,4.32664e-05,0.0432664,0.284548,0.000284548
0.2274203,0.000112324,0.112324,0.738718,0.000738718
0.235479,6.71079e-05,0.0671079,0.441345,0.000441345
0.243387,8.45845e-05,0.0845845,0.556283,0.000556283
0.251401,9.97274e-05,0.0997274,0.655872,0.000655872
0.259412,0.000132692,0.132692,0.872667,0.000872667
0.2673904,0.000146164,0.146164,0.961269,0.000961269
0.275398,0.000133487,0.133487,0.877899,0.000877899
0.283371,0.000154067,0.154067,1.01324,0.00101324
0.2914038,0.00016791,0.16791,1.10429,0.00110429
0.2993778,0.000202917,0.202917,1.33451,0.00133451
0.307346,0.000206948,0.206948,1.36102,0.00136102
0.315355,0.000230763,0.230763,1.51764,0.00151764
0.323356,0.000272054,0.272054,1.78921,0.00178921
0.331345,0.000335967,0.335967,2.20954,0.00220954
0.339314,0.000399987,0.399987,2.63057,0.00263057
0.347333,0.000407359,0.407359,2.67906,0.00267906
0.355263,0.000559239,0.559239,3.67792,0.00367792
0.363328,0.000610529,0.610529,4.01523,0.00401523
0.371291,0.000688975,0.688975,4.53115,0.00453115
0.379309,0.000845549,0.845549,5.56088,0.00556088
0.387271,0.00103233,1.03233,6.78927,0.00678927
0.395236,0.0012385,1.2385,8.14515,0.00814515
0.403261,0.00148418,1.48418,9.76091,0.00976091
0.411245,0.00189346,1.89346,12.4526,0.0124526
0.419225,0.00203059,2.03059,13.3545,0.0133545
0.427204,0.00205271,2.05271,13.5,0.0135
0.435231,0.00224522,2.24522,14.766,0.014766
0.443157,0.00248878,2.48878,16.3678,0.0163678
0.451182,0.00292079,2.92079,19.209,0.019209
0.459079,0.00405087,4.05087,26.6412,0.0266412
0.466957,0.00667713,6.67713,43.9132,0.0439132
0.474549,0.0124589,12.4589,81.9377,0.0819377
0.482321,0.0284414,28.4414,187.049,0.187049
0.4919875,0.00474836,4.74836,31.2283,0.0312283
0.496664,0.0055107,5.5107,36.242,0.036242
0.4963716,-0.00133718,-1.33718,-8.79415,-0.00879415
0.488056,-0.00318337,-3.18337,-20.9359,-0.0209359
0.48036,-0.00797879,-7.97879,-52.4737,-0.0524737
0.47258,-0.0168781,-16.8781,-111.001,-0.111001
0.463974,-0.0138241,-13.8241,-90.9162,-0.0909162
0.4557755,-0.0142409,-14.2409,-93.6574,-0.0936574
0.447765,-0.0072292,-7.2292,-47.5439,-0.0475439
0.439853,-0.00407088,-4.07088,-26.7728,-0.0267728
0.431945,-0.0032293,-3.2293,-21.238,-0.021238
0.423952,-0.00294073,-2.94073,-19.3402,-0.0193402
0.416,-0.00295943,-2.95943,-19.4631,-0.0194631
0.40795,-0.00283983,-2.83983,-18.6765,-0.0186765
0.399949,-0.00255484,-2.55484,-16.8023,-0.0168023
0.391918,-0.00210941,-2.10941,-13.8729,-0.0138729
0.383977,-0.00182536,-1.82536,-12.0048,-0.0120048
0.375986,-0.00160195,-1.60195,-10.5355,-0.0105355
0.368002,-0.0014344,-1.4344,-9.43355,-0.00943355
0.360004,-0.00134325,-1.34325,-8.83409,-0.00883409
0.352035,-0.00127032,-1.27032,-8.35446,-0.00835446
0.3439965,-0.00115247,-1.15247,-7.57937,-0.00757937
0.336003,-0.00107795,-1.07795,-7.08927,-0.00708927
0.328028,-0.00105371,-1.05371,-6.92985,-0.00692985
0.320059,-0.000987061,-0.987061,-6.49156,-0.00649156
0.312061,-0.000962159,-0.962159,-6.32778,-0.00632778
0.304119,-0.0009498,-0.9498,-6.24651,-0.00624651
0.29608,-0.000913733,-0.913733,-6.0093,-0.0060093
0.28806,-0.000929778,-0.929778,-6.11482,-0.00611482
0.280115,-0.000920242,-0.920242,-6.05211,-0.00605211
0.272098,-0.000915775,-0.915775,-6.02273,-0.00602273
0.264088,-0.000898325,-0.898325,-5.90797,-0.00590797
0.2561101,-0.000900314,-0.900314,-5.92105,-0.00592105
0.248113,-0.000897556,-0.897556,-5.90291,-0.00590291
0.240103,-0.000863664,-0.863664,-5.68001,-0.00568001
0.232093,-0.000929911,-0.929911,-6.1157,-0.0061157
0.224105,-0.00091726,-0.91726,-6.0325,-0.0060325
0.2162043,-0.000897344,-0.897344,-5.90152,-0.00590152
0.208139,-0.00091673,-0.91673,-6.02901,-0.00602901
0.20016,-0.000976586,-0.976586,-6.42266,-0.00642266
0.192167,-0.0009607,-0.9607,-6.31819,-0.00631819
0.184195,-0.000953169,-0.953169,-6.26866,-0.00626866
0.176149,-0.00102281,-1.02281,-6.72666,-0.00672666
0.168199,-0.00101525,-1.01525,-6.67696,-0.00667696
0.160189,-0.00101045,-1.01045,-6.64539,-0.00664539
0.15211,-0.00104281,-1.04281,-6.85817,-0.00685817
0.14419,-0.00106179,-1.06179,-6.98305,-0.00698305
0.136207,-0.00110269,-1.10269,-7.25199,-0.00725199
0.128159,-0.00108696,-1.08696,-7.14857,-0.00714857
0.120212,-0.00111491,-1.11491,-7.3324,-0.0073324
0.112218,-0.00117391,-1.17391,-7.7204,-0.0077204
0.1042,-0.00116851,-1.16851,-7.68489,-0.00768489
0.0962401,-0.00118196,-1.18196,-7.77331,-0.00777331
0.0882417,-0.00123712,-1.23712,-8.13609,-0.00813609
0.0802588,-0.00122919,-1.22919,-8.08394,-0.00808394
0.0722575,-0.00126202,-1.26202,-8.29987,-0.00829987
0.0642767,-0.0012831,-1.2831,-8.43852,-0.00843852
0.0562859,-0.0013419,-1.3419,-8.8252,-0.0088252
0.0482305,-0.00133858,-1.33858,-8.8034,-0.0088034
0.0402452,-0.00137232,-1.37232,-9.02525,-0.00902525
0.0322738,-0.00140634,-1.40634,-9.24902,-0.00924902
0.0243017,-0.00145824,-1.45824,-9.59034,-0.00959034
0.0163103,-0.00145816,-1.45816,-9.58982,-0.00958982
0.00825465,-0.00152026,-1.52026,-9.99821,-0.00999821
3.477018E-4,-0.0015426,-1.5426,-10.1452,-0.0101452
-0.00773982,-0.00157326,-1.57326,-10.3468,-0.0103468
-0.0156663,-0.00166409,-1.66409,-10.9441,-0.0109441
-0.0237156,-0.00170729,-1.70729,-11.2283,-0.0112283
-0.03165118,-0.00174516,-1.74516,-11.4773,-0.0114773
-0.0396545,-0.00181581,-1.81581,-11.9419,-0.0119419
-0.0477048,-0.00190094,-1.90094,-12.5018,-0.0125018
-0.0556122,-0.00201527,-2.01527,-13.2537,-0.0132537
-0.063646,-0.00208446,-2.08446,-13.7087,-0.0137087
-0.0716574,-0.00228214,-2.28214,-15.0088,-0.0150088
-0.0795876,-0.0024799,-2.4799,-16.3094,-0.0163094
-0.0876595,-0.00273345,-2.73345,-17.977,-0.017977
-0.0956464,-0.00300979,-3.00979,-19.7944,-0.0197944
-0.103625,-0.00347588,-3.47588,-22.8597,-0.0228597
-0.111585,-0.00399321,-3.99321,-26.2619,-0.0262619
-0.119566,-0.00440496,-4.40496,-28.9699,-0.0289699
-0.127588,-0.00499853,-4.99853,-32.8736,-0.0328736
-0.135556,-0.00571499,-5.71499,-37.5855,-0.0375855
-0.143541,-0.00615275,-6.15275,-40.4645,-0.0404645
-0.151572,-0.00632845,-6.32845,-41.62,-0.04162
-0.159583,-0.00638204,-6.38204,-41.9725,-0.0419725
-0.167591,-0.00576257,-5.76257,-37.8984,-0.0378984
-0.175585,-0.00466989,-4.66989,-30.7122,-0.0307122
-0.18359,-0.00382685,-3.82685,-25.1678,-0.0251678
-0.191606,-0.00330451,-3.30451,-21.7326,-0.0217326
-0.19526,-0.00307569,-3.07569,-20.2278,-0.0202278

File: engstfeld_2018_polycrystalline_17743_f4b_4.mpt
EC-Lab ASCII FILE
Nb header lines : 3
mode	ox/red	error	control changes	Ns changes	counter inc.	time/s	control/V	Ewe/V	<I>/mA	cycle number	(Q-Qo)/C	P/W
2	1	0	1	0	0	268.351	-0.199945	-0.195302	-0.0042395	11	-0.0014379	8.27984e-07
2	1	0	1	0	0	268.562	-0.1894	-0.193218	-0.00117702	11	-0.00143843	2.27423e-07
2	1	0	0	0	0	268.781	-0.178406	-0.182201	-0.000191568	11	-0.00143858	3.49039e-08
2	1	0	0	0	0	269.001	-0.167411	-0.171296	0.000921502	11	-0.00143849	1.57849e-07
2	1	0	1	0	0	269.221	-0.156416	-0.160207	0.00202829	11	-0.00143814	3.24946e-07
2	1	0	1	0	0	269.441	-0.145421	-0.149243	0.00272083	11	-0.00143762	4.06064e-07
2	1	0	0	0	0	269.661	-0.134427	-0.13825	0.00277469	11	-0.001437	3.83601e-07
2	1	0	0	0	0	269.881	-0.123432	-0.12726	0.0027809	11	-0.00143639	3.53896e-07
2	1	0	1	0	0	270.101	-0.112437	-0.116285	0.00239601	11	-0.00143583	2.78621e-07
2	1	0	1	0	0	270.321	-0.101445	-0.10528	0.00195304	11	-0.00143535	2.05616e-07
2	1	0	0	0	0	270.541	-0.0904478	-0.0942696	0.0015165	11	-0.00143496	1.4296e-07
2	1	0	1	0	0	270.76	-0.079453	-0.0833313	0.00119503	11	-0.00143467	9.95833e-08
2	1	0	1	0	0	270.98	-0.0684583	-0.0722785	0.000763575	11	-0.00143446	5.51901e-08
2	1	0	0	0	0	271.2	-0.0574635	-0.0613412	0.000603527	11	-0.00143431	3.70211e-08
2	1	0	0	0	0	271.42	-0.0464688	-0.0503308	0.000383995	11	-0.00143421	1.93268e-08
2	1	0	1	0	0	271.64	-0.0354741	-0.0393376	0.000222462	11	-0.00143415	8.75112e-09
2	1	0	1	0	0	271.86	-0.0244793	-0.0283553	8.69978e-05	11	-0.00143412	2.46685e-09
2	1	0	0	0	0	272.08	-0.0134846	-0.0173413	5.87275e-05	11	-0.0014341	1.01841e-09
2	1	0	0	0	0	272.3	-0.00248982	-0.00640308	1.84172e-05	11	-0.00143409	1.17927e-10
2	1	0	1	0	0	272.52	0.00850492	0.00462002	-3.00348e-05	11	-0.00143409	1.38761e-10
2	1	0	1	0	0	272.74	0.0194997	0.0156085	-5.45393e-05	11	-0.0014341	8.51277e-10
2	1	0	0	0	0	272.959	0.0304944	0.0265938	-2.93983e-05	11	-0.00143412	7.81814e-10
2	1	0	0	0	0	273.179	0.0414891	0.037618	-4.8864e-05	11	-0.00143413	1.83816e-09
2	1	0	1	0	0	273.399	0.0524839	0.0485887	-2.37761e-05	11	-0.00143413	1.15525e-09
2	1	0	1	0	0	273.619	0.0634786	0.0596024	-7.81105e-06	11	-0.00143414	4.65558e-10
2	1	0	0	0	0	273.839	0.0744733	0.0705854	-6.69723e-06	11	-0.00143414	4.72727e-10
2	1	0	0	0	0	274.059	0.0854681	0.0815389	-3.00613e-05	11	-0.00143415	2.45117e-09
2	1	0	1	0	0	274.279	0.0964628	0.0925308	1.22646e-05	11	-0.00143415	1.13485e-09
2	1	0	1	0	0	274.499	0.107453	0.103527	2.10005e-06	11	-0.00143415	2.17413e-10
2	1	0	0	0	0	274.719	0.118452	0.114496	4.90743e-05	11	-0.00143415	5.61882e-09
2	1	0	1	0	0	274.938	0.129447	0.125513	4.44068e-05	11	-0.00143414	5.57365e-09
2	1	0	1	0	0	275.158	0.140442	0.136479	4.64488e-05	11	-0.00143413	6.33927e-09
2	1	0	0	0	0	275.378	0.151437	0.147474	4.72709e-05	11	-0.00143412	6.97121e-09
2	1	0	0	0	0	275.598	0.162431	0.158502	5.29727e-05	11	-0.00143411	8.3963e-09
2	1	0	1	0	0	275.818	0.173426	0.169519	3.55226e-05	11	-0.0014341	6.02176e-09
2	1	0	1	0	0	276.038	0.184421	0.180455	3.77768e-05	11	-0.00143409	6.81701e-09
2	1	0	0	0	0	276.258	0.195415	0.191473	4.3346e-05	11	-0.00143408	8.29957e-09
2	1	0	0	0	0	276.478	0.20641	0.202439	3.76442e-05	11	-0.00143407	7.62063e-09
2	1	0	1	0	0	276.698	0.217405	0.213457	7.28892e-05	11	-0.00143406	1.55587e-08
2	1	0	1	0	0	276.918	0.2284	0.22443	4.23117e-05	11	-0.00143405	9.496e-09
2	1	0	0	0	0	277.137	0.239394	0.235479	6.71079e-05	11	-0.00143402	1.58025e-08
2	1	0	0	0	0	277.357	0.250389	0.246399	8.29668e-05	11	-0.00143401	2.04429e-08
2	1	0	1	0	0	277.577	0.261384	0.257457	0.000103361	11	-0.00143399	2.66109e-08
2	1	0	1	0	0	277.797	0.272379	0.268387	0.000141311	11	-0.00143396	3.7926e-08
2	1	0	0	0	0	278.017	0.283373	0.27937	0.000138659	11	-0.00143393	3.87371e-08
2	1	0	0	0	0	278.237	0.294368	0.290388	0.00019215	11	-0.00143389	5.5798e-08
2	1	0	1	0	0	278.457	0.305363	0.301367	0.000209865	11	-0.00143385	6.32464e-08
2	1	0	1	0	0	278.677	0.316358	0.312329	0.000209706	11	-0.0014338	6.54973e-08
2	1	0	0	0	0	278.897	0.327352	0.323356	0.000272054	11	-0.00143375	8.79703e-08
2	1	0	1	0	0	279.116	0.338347	0.33434	0.000335456	11	-0.00143368	1.12156e-07
2	1	0	1	0	0	279.336	0.349342	0.345309	0.000415448	11	-0.0014336	1.43458e-07
2	1	0	0	0	0	279.556	0.360337	0.356253	0.000549108	11	-0.00143349	1.95621e-07
2	1	0	0	0	0	279.776	0.371331	0.367321	0.000652748	11	-0.00143336	2.39768e-07
2	1	0	1	0	0	279.996	0.382326	0.378302	0.000844196	11	-0.0014332	3.19361e-07
2	1	0	1	0	0	280.216	0.393321	0.38928	0.00106863	11	-0.00143299	4.15998e-07
2	1	0	0	0	0	280.436	0.404315	0.400265	0.00145744	11	-0.00143272	5.83363e-07
2	1	0	0	0	0	280.656	0.41531	0.411245	0.00189346	11	-0.00143236	7.78676e-07
2	1	0	1	0	0	280.876	0.426305	0.422234	0.00212744	11	-0.00143193	8.9828e-07
2	1	0	1	0	0	281.096	0.4373	0.433225	0.00223885	11	-0.00143147	9.69929e-07
2	1	0	0	0	0	281.315	0.448294	0.444155	0.00253771	11	-0.00143096	1.12714e-06
2	1	0	0	0	0	281.535	0.459289	0.455147	0.00348903	11	-0.00143032	1.58802e-06
2	1	0	1	0	0	281.755	0.470284	0.465955	0.00623308	11	-0.00142933	2.90433e-06
2	1	0	1	0	0	281.975	0.481279	0.476284	0.0158165	11	-0.0014272	7.53313e-06
2	1	0	0	0	0	282.195	0.492273	0.48986	0.0154734	11	-0.00142202	7.57981e-06
2	0	0	0	0	0	282.362	0.49937	0.496664	0.0055107	11	-0.00142094	2.73697e-06
2	0	0	0	0	0	282.582	0.488375	0.493011	-0.00201455	11	-0.00142066	9.93197e-07
2	0	0	1	0	0	282.802	0.477381	0.48227	-0.00646651	11	-0.00142148	3.11861e-06
2	0	0	1	0	0	283.022	0.466386	0.47146	-0.0175447	11	-0.00142409	8.27163e-06
2	0	0	0	0	0	283.241	0.455391	0.460243	-0.0154858	11	-0.00142749	7.12722e-06
2	0	0	0	0	0	283.461	0.444396	0.448772	-0.00772412	11	-0.00143018	3.46637e-06
2	0	0	1	0	0	283.681	0.433402	0.437875	-0.00378529	11	-0.00143135	1.65749e-06
2	0	0	1	0	0	283.901	0.422407	0.426929	-0.00309792	11	-0.00143208	1.32259e-06
2	0	0	0	0	0	284.121	0.411412	0.416	-0.00295943	11	-0.00143273	1.23112e-06
2	0	0	0	0	0	284.341	0.400415	0.404988	-0.00286754	11	-0.00143336	1.16132e-06
2	0	0	1	0	0	284.561	0.389423	0.393924	-0.00223549	11	-0.00143392	8.80612e-07
2	0	0	0	0	0	284.781	0.378428	0.382963	-0.00180608	11	-0.00143435	6.91662e-07
2	0	0	0	0	0	285.001	0.367433	0.372018	-0.00153059	11	-0.00143472	5.69406e-07
2	0	0	1	0	0	285.22	0.356438	0.361014	-0.00134794	11	-0.00143503	4.86628e-07
2	0	0	1	0	0	285.44	0.345444	0.350032	-0.00124709	11	-0.00143531	4.36521e-07
2	0	0	0	0	0	285.66	0.334449	0.339019	-0.00107402	11	-0.00143557	3.64113e-07
2	0	0	0	0	0	285.88	0.323454	0.328028	-0.00105371	11	-0.0014358	3.45645e-07
2	0	0	1	0	0	286.1	0.312459	0.317061	-0.000990005	11	-0.00143602	3.13892e-07
2	0	0	1	0	0	286.32	0.301465	0.306102	-0.000935904	11	-0.00143623	2.86483e-07
2	0	0	0	0	0	286.54	0.29047	0.295092	-0.000924368	11	-0.00143644	2.72774e-07
2	0	0	0	0	0	286.76	0.279475	0.284104	-0.000924156	11	-0.00143664	2.62556e-07
2	0	0	1	0	0	286.98	0.268481	0.27309	-0.00091978	11	-0.00143685	2.51183e-07
2	0	0	1	0	0	287.2	0.257486	0.26214	-0.000906122	11	-0.00143705	2.37531e-07
2	0	0	0	0	0	287.419	0.246491	0.25106	-0.000882228	11	-0.00143724	2.21492e-07
2	0	0	0	0	0	287.639	0.235496	0.240103	-0.000863664	11	-0.00143744	2.07369e-07
2	0	0	1	0	0	287.859	0.224502	0.229086	-0.000917976	11	-0.00143764	2.10296e-07
2	0	0	1	0	0	288.079	0.213507	0.218183	-0.000907766	11	-0.00143784	1.9806e-07
2	0	0	0	0	0	288.299	0.202512	0.207124	-0.000923281	11	-0.00143804	1.91234e-07
2	0	0	0	0	0	288.519	0.191516	0.196166	-0.000936148	11	-0.00143825	1.83641e-07
2	0	0	1	0	0	288.739	0.180523	0.185162	-0.000954017	11	-0.00143846	1.76647e-07
2	0	0	0	0	0	288.959	0.169528	0.174132	-0.000988997	11	-0.00143868	1.72216e-07
2	0	0	0	0	0	289.179	0.158533	0.163125	-0.00100992	11	-0.0014389	1.64743e-07
2	0	0	1	0	0	289.398	0.147538	0.15211	-0.00104281	11	-0.00143913	1.58622e-07
2	0	0	1	0	0	289.618	0.136544	0.141179	-0.00107718	11	-0.00143936	1.52075e-07
2	0	0	0	0	0	289.838	0.125549	0.130194	-0.0010911	11	-0.0014396	1.42054e-07
2	0	0	0	0	0	290.058	0.114554	0.119229	-0.00110274	11	-0.00143984	1.31478e-07
2	0	0	1	0	0	290.278	0.103559	0.108204	-0.00117485	11	-0.00144009	1.27123e-07
2	0	0	1	0	0	290.498	0.0925647	0.0972509	-0.0011779	11	-0.00144035	1.14552e-07
2	0	0	0	0	0	290.718	0.0815699	0.0862236	-0.00122784	11	-0.00144062	1.05868e-07
2	0	0	0	0	0	290.938	0.0705752	0.0752629	-0.00128581	11	-0.00144089	9.67736e-08
2	0	0	1	0	0	291.158	0.0595805	0.0642767	-0.0012831	11	-0.00144117	8.24736e-08
2	0	0	1	0	0	291.378	0.0485857	0.0532852	-0.00135537	11	-0.00144146	7.22212e-08
2	0	0	0	0	0	291.597	0.037591	0.0422551	-0.00137142	11	-0.00144176	5.79493e-08
2	0	0	0	0	0	291.817	0.0265963	0.0312626	-0.00141276	11	-0.00144206	4.41665e-08
2	0	0	1	0	0	292.037	0.0156015	0.0202889	-0.00147147	11	-0.00144238	2.98546e-08
2	0	0	1	0	0	292.257	0.00460678	0.00925819	-0.00152491	11	-0.00144271	1.41179e-08
2	0	0	0	0	0	292.477	-0.00638796	-0.00167238	-0.00157835	11	-0.00144304	2.63959e-09
2	0	0	0	0	0	292.697	-0.0173816	-0.0126711	-0.0016051	11	-0.00144339	2.03384e-08
2	0	0	1	0	0	292.917	-0.0283774	-0.0237156	-0.00170729	11	-0.00144375	4.04894e-08
2	0	0	0	0	0	293.137	-0.0393722	-0.0346313	-0.00176606	11	-0.00144413	6.11609e-08
2	0	0	0	0	0	293.357	-0.0503669	-0.0456879	-0.00187898	11	-0.00144453	8.58468e-08
2	0	0	1	0	0	293.576	-0.0613617	-0.0566124	-0.0020434	11	-0.00144496	1.15682e-07
2	0	0	1	0	0	293.796	-0.0723564	-0.0676715	-0.00220369	11	-0.00144542	1.49127e-07
2	0	0	0	0	0	294.016	-0.0833512	-0.0785964	-0.00244744	11	-0.00144593	1.9236e-07
2	0	0	0	0	0	294.236	-0.0943459	-0.0896227	-0.00282532	11	-0.00144651	2.53213e-07
2	0	0	1	0	0	294.456	-0.105341	-0.100594	-0.00332779	11	-0.00144717	3.34756e-07
2	0	0	1	0	0	294.676	-0.116335	-0.111585	-0.00399321	11	-0.00144797	4.45583e-07
2	0	0	0	0	0	294.896	-0.12733	-0.122538	-0.00471527	11	-0.00144891	5.778e-07
2	0	0	0	0	0	295.116	-0.138325	-0.133546	-0.00549795	11	-0.00145003	7.34228e-07
2	0	0	1	0	0	295.336	-0.14932	-0.144533	-0.00624085	11	-0.00145132	9.0201e-07
2	0	0	1	0	0	295.556	-0.160314	-0.155542	-0.00651706	11	-0.00145271	1.01368e-06
2	0	0	0	0	0	295.775	-0.171309	-0.166581	-0.00585226	11	-0.00145408	9.74878e-07
2	0	0	0	0	0	295.995	-0.182304	-0.177607	-0.00448791	11	-0.00145521	7.97084e-07
2	0	0	1	0	0	296.215	-0.193299	-0.188605	-0.00350704	11	-0.00145608	6.61446e-07
2	0	0	0	0	0	296.348	-0.200045	-0.19526	-0.00307569	11	-0.00145651	6.00561e-07